USUBJID,AESEQ,AETERM,AESEV,AESER,AESHOSP,AESTDTC,AEENDTC,AEOUT,AENARR,cut_available,corrected_at_cut
042-S02-001,1,Headache,MILD,N,N,2026-03-21,2026-03-25,RECOVERED,"Subject reported headache on study day 60; mild intensity, resolved after 4 days.",4,
042-S03-001,1,Nausea,MILD,N,N,03-FEB-2026,13-FEB-2026,RECOVERED,Investigator assessed nausea as mild; no change to study drug; recovered.,2,
042-S03-001,2,Back pain,MILD,N,N,02-JUN-2026,10-JUN-2026,RECOVERED,Investigator assessed back pain as mild; no change to study drug; recovered.,8,
042-S05-001,1,Nausea,MILD,N,N,2026-05-31,2026-06-12,RECOVERED,Nausea (mild) noted at follow-up call; duration 12 days.,8,
042-S06-001,1,Diarrhoea,MILD,N,N,2026-02-08,2026-02-17,RECOVERED,"Diarrhoea of mild severity, onset day 24, managed conservatively.",2,
042-S06-001,2,Headache,MILD,N,N,2026-03-22,2026-04-03,RECOVERED,Headache (mild) noted at follow-up call; duration 12 days.,4,
042-S07-001,1,Diarrhoea,MILD,N,N,2026-03-01,2026-03-03,RECOVERED,Investigator assessed diarrhoea as mild; no change to study drug; recovered.,3,
042-S08-001,1,Dizziness,MILD,N,N,2026-03-06,2026-03-16,RECOVERED,Dizziness (mild) noted at follow-up call; duration 10 days.,6,
042-S08-001,2,Rash,MILD,N,N,2026-01-25,2026-01-26,RECOVERED,"Subject reported rash on study day 13; mild intensity, resolved after 1 days.",4,
042-S08-001,3,Dizziness,MILD,N,N,2026-04-10,2026-04-23,RECOVERED,Dizziness (mild) noted at follow-up call; duration 13 days.,8,
042-S09-001,1,Dizziness,MILD,N,N,2026-04-26,2026-05-10,RECOVERED,Dizziness (mild) noted at follow-up call; duration 14 days.,6,
042-S10-001,1,Hypoglycaemia,MODERATE,N,N,2026-05-26,2026-06-06,RECOVERED,Hypoglycaemia (moderate) noted at follow-up call; duration 11 days.,8,
042-S10-001,2,Headache,MILD,N,N,2026-01-24,2026-02-02,RECOVERED,Headache (mild) noted at follow-up call; duration 9 days.,1,
042-S11-001,1,Hypoglycaemia,MODERATE,N,N,2026-05-31,2026-06-03,RECOVERED,Event reported by subject. Resolved without treatment. No action taken.,8,
042-S02-002,1,Hypoglycaemia,MODERATE,N,N,2026-02-04,2026-02-07,RECOVERED,Investigator assessed hypoglycaemia as moderate; no change to study drug; recovered.,2,
042-S02-002,2,Hypoglycaemia,MODERATE,N,N,2026-03-24,2026-04-04,RECOVERED,"Subject reported hypoglycaemia on study day 59; moderate intensity, resolved after 11 days.",4,
042-S02-002,3,Back pain,MILD,N,N,2026-03-04,2026-03-10,RECOVERED,"Subject reported back pain on study day 39; mild intensity, resolved after 6 days.",3,
042-S04-002,1,Dizziness,MILD,N,N,2026-03-19,2026-03-31,RECOVERED,"Subject reported dizziness on study day 55; mild intensity, resolved after 12 days.",4,
042-S05-002,1,Diarrhoea,MILD,N,N,2026-04-13,2026-04-21,RECOVERED,"Diarrhoea of mild severity, onset day 78, managed conservatively.",6,
042-S06-002,1,Urinary tract infection,MODERATE,N,N,2026-06-06,2026-06-09,RECOVERED,"Urinary tract infection of moderate severity, onset day 134, managed conservatively.",9,
042-S07-002,1,Diarrhoea,MILD,N,N,2026-06-24,2026-07-07,RECOVERED,"Subject reported diarrhoea on study day 153; mild intensity, resolved after 13 days.",10,
042-S07-002,2,Urinary tract infection,MODERATE,N,N,2026-02-28,2026-03-05,RECOVERED,Urinary tract infection (moderate) noted at follow-up call; duration 5 days.,3,
042-S08-002,1,Hypoglycaemia,MODERATE,N,N,2026-03-25,2026-04-08,RECOVERED,"Subject reported hypoglycaemia on study day 61; moderate intensity, resolved after 14 days.",8,
042-S09-002,1,Diarrhoea,MILD,N,N,2026-02-02,2026-02-16,RECOVERED,"Diarrhoea of mild severity, onset day 16, managed conservatively.",2,
042-S10-002,1,Headache,MILD,N,N,2026-04-10,2026-04-19,RECOVERED,"Subject reported headache on study day 81; mild intensity, resolved after 9 days.",5,
042-S12-002,1,Upper respiratory tract infection,MILD,N,N,2026-04-14,2026-04-26,RECOVERED,"Subject reported upper respiratory tract infection on study day 83; mild intensity, resolved after 12 days.",6,
042-S01-003,1,Urinary tract infection,MODERATE,N,N,2026-02-28,2026-03-02,RECOVERED,"Urinary tract infection of moderate severity, onset day 37, managed conservatively.",3,
042-S02-003,1,Rash,MILD,N,N,2026-05-21,2026-05-29,RECOVERED,Rash (mild) noted at follow-up call; duration 8 days.,8,
042-S03-003,1,Fatigue,MILD,N,N,08-APR-2026,14-APR-2026,RECOVERED,Fatigue (mild) noted at follow-up call; duration 6 days.,5,
042-S03-003,2,Hypoglycaemia,MODERATE,N,N,01-APR-2026,11-APR-2026,RECOVERED,"Hypoglycaemia of moderate severity, onset day 59, managed conservatively.",5,
042-S04-003,1,Back pain,MILD,N,N,2026-06-12,2026-06-14,RECOVERED,"Back pain of mild severity, onset day 146, managed conservatively.",9,
042-S05-003,1,Nausea,MILD,N,N,2026-02-25,2026-03-04,RECOVERED,Nausea (mild) noted at follow-up call; duration 7 days.,3,
042-S05-003,2,Hypoglycaemia,MODERATE,N,N,2026-02-15,2026-02-27,RECOVERED,"Hypoglycaemia of moderate severity, onset day 29, managed conservatively.",2,
042-S06-003,1,Headache,MILD,N,N,2026-02-18,2026-03-04,RECOVERED,"Subject reported headache on study day 17; mild intensity, resolved after 14 days.",3,
042-S07-003,1,Diarrhoea,MILD,N,N,2026-05-23,2026-05-28,RECOVERED,Investigator assessed diarrhoea as mild; no change to study drug; recovered.,8,
042-S08-003,1,Upper respiratory tract infection,MILD,N,N,2026-02-10,2026-02-18,RECOVERED,Upper respiratory tract infection (mild) noted at follow-up call; duration 8 days.,5,
042-S09-003,1,Hypoglycaemia,MODERATE,N,N,2026-02-19,2026-03-03,RECOVERED,Hypoglycaemia (moderate) noted at follow-up call; duration 12 days.,3,
042-S10-003,1,Back pain,MILD,N,N,2026-04-06,2026-04-10,RECOVERED,Investigator assessed back pain as mild; no change to study drug; recovered.,5,
042-S10-003,2,Diarrhoea,MILD,N,N,2026-03-21,2026-03-29,RECOVERED,Investigator assessed diarrhoea as mild; no change to study drug; recovered.,4,
042-S12-003,1,Back pain,MILD,N,N,2026-02-03,2026-02-09,RECOVERED,"Subject reported back pain on study day 17; mild intensity, resolved after 6 days.",2,
042-S01-004,1,Upper respiratory tract infection,MILD,N,N,2026-01-26,2026-01-30,RECOVERED,Investigator assessed upper respiratory tract infection as mild; no change to study drug; recovered.,1,
042-S02-004,1,Cellulitis,SEVERE,N,Y,2026-04-13,2026-04-14,RECOVERED,Investigator assessed cellulitis as severe; no change to study drug; recovered.,6,
042-S02-004,2,Headache,MILD,N,N,2026-04-14,2026-04-25,RECOVERED,Headache (mild) noted at follow-up call; duration 11 days.,6,
042-S03-004,1,Nausea,MILD,N,N,24-APR-2026,26-APR-2026,RECOVERED,"Nausea of mild severity, onset day 86, managed conservatively.",6,
042-S05-004,1,Rash,MILD,N,N,2026-02-16,2026-02-19,RECOVERED,"Rash of mild severity, onset day 33, managed conservatively.",2,
042-S05-004,2,Headache,MILD,N,N,2026-06-02,2026-06-06,RECOVERED,Investigator assessed headache as mild; no change to study drug; recovered.,8,
042-S06-004,1,Dizziness,MILD,N,N,2026-04-29,2026-05-11,RECOVERED,"Subject reported dizziness on study day 99; mild intensity, resolved after 12 days.",6,
042-S06-004,2,Urinary tract infection,MODERATE,N,N,2026-04-28,2026-04-29,RECOVERED,"Subject reported urinary tract infection on study day 98; moderate intensity, resolved after 1 days.",6,
042-S07-004,1,Diarrhoea,MILD,N,N,2026-05-19,2026-05-27,RECOVERED,"Diarrhoea of mild severity, onset day 113, managed conservatively.",8,
042-S08-004,1,Nausea,MILD,N,N,2026-02-27,2026-03-02,RECOVERED,Investigator assessed nausea as mild; no change to study drug; recovered.,6,
042-S08-004,2,Upper respiratory tract infection,MILD,N,N,2026-03-18,2026-03-20,RECOVERED,"Subject reported upper respiratory tract infection on study day 49; mild intensity, resolved after 2 days.",7,
042-S08-004,3,Back pain,MILD,N,N,2026-05-03,2026-05-17,RECOVERED,"Back pain of mild severity, onset day 95, managed conservatively.",10,
042-S09-004,1,Hypoglycaemia,MODERATE,N,N,2026-04-24,2026-04-28,RECOVERED,Hypoglycaemia (moderate) noted at follow-up call; duration 4 days.,6,
042-S09-004,2,Hypoglycaemia,MODERATE,N,N,2026-04-13,2026-04-17,RECOVERED,Investigator assessed hypoglycaemia as moderate; no change to study drug; recovered.,6,
042-S09-004,3,Upper respiratory tract infection,MILD,N,N,2026-05-12,2026-05-23,RECOVERED,"Upper respiratory tract infection of mild severity, onset day 119, managed conservatively.",7,
042-S09-004,4,Rash,MILD,N,N,2026-02-12,2026-02-15,RECOVERED,"Rash of mild severity, onset day 30, managed conservatively.",2,
042-S10-004,1,Upper respiratory tract infection,MILD,N,N,2026-06-14,2026-06-25,RECOVERED,Upper respiratory tract infection (mild) noted at follow-up call; duration 11 days.,9,
042-S11-004,1,Dizziness,MILD,N,N,2026-04-16,2026-04-18,RECOVERED,Event reported by subject. Resolved without treatment. No action taken.,6,
042-S11-004,2,Rash,MILD,N,N,2026-07-08,2026-07-17,RECOVERED,Event reported by subject. Resolved without treatment. No action taken.,10,
042-S12-004,1,Headache,MILD,N,N,2026-04-03,2026-04-05,RECOVERED,"Subject reported headache on study day 62; mild intensity, resolved after 2 days.",5,
042-S03-005,1,Headache,MILD,N,N,14-MAY-2026,21-MAY-2026,RECOVERED,"Subject reported headache on study day 106; mild intensity, resolved after 7 days.",7,
042-S06-005,1,Headache,MILD,N,N,2026-04-01,2026-04-14,RECOVERED,Headache (mild) noted at follow-up call; duration 13 days.,5,
042-S07-005,1,Nausea,MILD,N,N,2026-04-21,2026-05-05,RECOVERED,Investigator assessed nausea as mild; no change to study drug; recovered.,6,
042-S08-005,1,Fatigue,MILD,N,N,2026-01-25,2026-01-29,RECOVERED,Investigator assessed fatigue as mild; no change to study drug; recovered.,4,
042-S08-005,2,Rash,MILD,N,N,2026-06-23,2026-07-06,RECOVERED,"Rash of mild severity, onset day 156, managed conservatively.",13,
042-S09-005,1,Hypoglycaemia,MODERATE,N,N,2026-02-25,2026-03-11,RECOVERED,Investigator assessed hypoglycaemia as moderate; no change to study drug; recovered.,3,
042-S09-005,2,Hypoglycaemia,MODERATE,N,N,2026-06-24,2026-06-26,RECOVERED,Investigator assessed hypoglycaemia as moderate; no change to study drug; recovered.,10,
042-S09-005,3,Fatigue,MILD,N,N,2026-05-23,2026-06-06,RECOVERED,"Subject reported fatigue on study day 116; mild intensity, resolved after 14 days.",8,
042-S10-005,1,Rash,MILD,N,N,2026-05-14,2026-05-27,RECOVERED,"Rash of mild severity, onset day 103, managed conservatively.",7,
042-S10-005,2,Upper respiratory tract infection,MILD,N,N,2026-04-26,2026-04-29,RECOVERED,Upper respiratory tract infection (mild) noted at follow-up call; duration 3 days.,6,
042-S11-005,1,Fatigue,MILD,N,N,2026-01-08,2026-01-22,RECOVERED,Event reported by subject. Resolved without treatment. No action taken.,6,
042-S12-005,1,Pneumonia,SEVERE,Y,Y,2026-02-01,2026-02-03,RECOVERED,"Pneumonia of severe severity, onset day 4, managed conservatively.",2,
042-S01-006,1,Diarrhoea,MILD,N,N,2026-02-27,2026-03-05,RECOVERED,Diarrhoea (mild) noted at follow-up call; duration 6 days.,3,
042-S02-006,1,Diarrhoea,MILD,N,N,2026-05-06,2026-05-09,RECOVERED,Diarrhoea (mild) noted at follow-up call; duration 3 days.,7,
042-S02-006,2,Diarrhoea,MILD,N,N,2026-05-21,2026-05-27,RECOVERED,Investigator assessed diarrhoea as mild; no change to study drug; recovered.,8,
042-S03-006,1,Headache,MILD,N,N,30-APR-2026,01-MAY-2026,RECOVERED,"Subject reported headache on study day 98; mild intensity, resolved after 1 days.",7,
042-S03-006,2,Nausea,MILD,N,N,08-JUN-2026,19-JUN-2026,RECOVERED,Investigator assessed nausea as mild; no change to study drug; recovered.,9,
042-S05-006,1,Myocardial infarction,SEVERE,Y,Y,2026-02-10,2026-02-13,RECOVERED,Investigator assessed myocardial infarction as severe; no change to study drug; recovered.,2,
042-S05-006,2,Back pain,MILD,N,N,2026-04-02,2026-04-05,RECOVERED,"Back pain of mild severity, onset day 71, managed conservatively.",5,
042-S06-006,1,Dizziness,MILD,N,N,2026-02-02,2026-02-16,RECOVERED,"Dizziness of mild severity, onset day 4, managed conservatively.",2,
042-S07-006,1,Urinary tract infection,MODERATE,N,N,2026-02-22,2026-03-03,RECOVERED,Investigator assessed urinary tract infection as moderate; no change to study drug; recovered.,3,
042-S08-006,1,Fatigue,MILD,N,N,2026-04-30,2026-05-11,RECOVERED,Investigator assessed fatigue as mild; no change to study drug; recovered.,10,
042-S09-006,1,Hypoglycaemia,MODERATE,N,N,2026-04-01,2026-04-14,RECOVERED,Investigator assessed hypoglycaemia as moderate; no change to study drug; recovered.,5,
042-S09-006,2,Hypoglycaemia,MODERATE,N,N,2026-02-26,2026-02-28,RECOVERED,"Hypoglycaemia of moderate severity, onset day 43, managed conservatively.",3,
042-S09-006,3,Hypoglycaemia,MODERATE,N,N,2026-06-13,2026-06-22,RECOVERED,Hypoglycaemia (moderate) noted at follow-up call; duration 9 days.,9,
042-S09-006,4,Upper respiratory tract infection,MILD,N,N,2026-05-22,2026-05-31,RECOVERED,"Subject reported upper respiratory tract infection on study day 128; mild intensity, resolved after 9 days.",8,
042-S10-006,1,Urinary tract infection,MODERATE,N,N,2026-01-23,2026-02-02,RECOVERED,"Urinary tract infection of moderate severity, onset day 3, managed conservatively.",1,
042-S11-006,1,Hypoglycaemia,MODERATE,N,N,2026-04-11,2026-04-24,RECOVERED,Event reported by subject. Resolved without treatment. No action taken.,6,
042-S12-006,1,Back pain,MILD,N,N,2026-06-28,2026-06-29,RECOVERED,Investigator assessed back pain as mild; no change to study drug; recovered.,10,
042-S01-007,1,Myocardial infarction,SEVERE,Y,Y,2026-03-20,2026-03-21,RECOVERED,Myocardial infarction (severe) noted at follow-up call; duration 1 days.,4,
042-S02-007,1,Headache,MILD,N,N,2026-06-09,2026-06-13,RECOVERED,"Headache of mild severity, onset day 143, managed conservatively.",9,
042-S02-007,2,Headache,MILD,N,N,2026-01-31,2026-02-05,RECOVERED,Headache (mild) noted at follow-up call; duration 5 days.,2,
042-S04-007,1,Rash,MILD,N,N,2026-05-25,2026-05-28,RECOVERED,Rash (mild) noted at follow-up call; duration 3 days.,8,
042-S04-007,2,Urinary tract infection,MODERATE,N,N,2026-06-13,2026-06-24,RECOVERED,Urinary tract infection (moderate) noted at follow-up call; duration 11 days.,9,
042-S08-007,1,Fatigue,MILD,N,N,2026-04-23,2026-05-07,RECOVERED,Investigator assessed fatigue as mild; no change to study drug; recovered.,9,
042-S09-007,1,Nausea,MILD,N,N,2026-05-06,2026-05-15,RECOVERED,"Subject reported nausea on study day 100; mild intensity, resolved after 9 days.",7,
042-S09-007,2,Headache,MILD,N,N,2026-04-25,2026-04-29,RECOVERED,Headache (mild) noted at follow-up call; duration 4 days.,6,
042-S10-007,1,Upper respiratory tract infection,MILD,N,N,2026-04-19,2026-04-23,RECOVERED,Investigator assessed upper respiratory tract infection as mild; no change to study drug; recovered.,6,
042-S10-007,2,Fatigue,MILD,N,N,2026-05-15,2026-05-21,RECOVERED,Fatigue (mild) noted at follow-up call; duration 6 days.,7,
042-S01-008,1,Upper respiratory tract infection,MILD,N,N,2026-05-28,2026-05-31,RECOVERED,"Upper respiratory tract infection of mild severity, onset day 127, managed conservatively.",8,
042-S02-008,1,Fatigue,MILD,N,N,2026-03-07,2026-03-09,RECOVERED,"Subject reported fatigue on study day 43; mild intensity, resolved after 2 days.",4,
042-S03-008,1,Hypoglycaemia,MODERATE,N,N,24-APR-2026,04-MAY-2026,RECOVERED,"Subject reported hypoglycaemia on study day 93; moderate intensity, resolved after 10 days.",6,
042-S03-008,2,Dizziness,MILD,N,N,16-APR-2026,24-APR-2026,RECOVERED,"Dizziness of mild severity, onset day 85, managed conservatively.",6,
042-S04-008,1,Rash,MILD,N,N,2026-06-12,2026-06-24,RECOVERED,"Rash of mild severity, onset day 142, managed conservatively.",9,
042-S04-008,2,Hypoglycaemia,MODERATE,N,N,2026-04-22,2026-05-01,RECOVERED,Investigator assessed hypoglycaemia as moderate; no change to study drug; recovered.,6,
042-S05-008,1,Fatigue,MILD,N,N,2026-03-21,2026-04-04,RECOVERED,Investigator assessed fatigue as mild; no change to study drug; recovered.,4,
042-S08-008,1,Upper respiratory tract infection,MILD,N,N,2026-04-10,2026-04-17,RECOVERED,"Subject reported upper respiratory tract infection on study day 82; mild intensity, resolved after 7 days.",8,
042-S10-008,1,Urinary tract infection,MODERATE,N,N,2026-05-16,2026-05-23,RECOVERED,"Urinary tract infection of moderate severity, onset day 124, managed conservatively.",7,
042-S10-008,2,Diarrhoea,MILD,N,N,2026-06-18,2026-06-21,RECOVERED,"Diarrhoea of mild severity, onset day 157, managed conservatively.",9,
042-S10-008,3,Rash,MILD,N,N,2026-05-05,2026-05-17,RECOVERED,Rash (mild) noted at follow-up call; duration 12 days.,7,
042-S11-008,1,Fatigue,MILD,N,N,2026-03-18,2026-03-31,RECOVERED,Event reported by subject. Resolved without treatment. No action taken.,6,
042-S12-008,1,Nausea,MILD,N,N,2026-06-19,2026-06-23,RECOVERED,"Nausea of mild severity, onset day 150, managed conservatively.",9,
042-S12-008,2,Diarrhoea,MILD,N,N,2026-03-15,2026-03-24,RECOVERED,"Diarrhoea of mild severity, onset day 54, managed conservatively.",4,
042-S01-009,1,Back pain,MILD,N,N,2026-06-21,2026-07-02,RECOVERED,Investigator assessed back pain as mild; no change to study drug; recovered.,9,
042-S02-009,1,Back pain,MILD,N,N,2026-01-21,2026-01-23,RECOVERED,"Back pain of mild severity, onset day 4, managed conservatively.",1,
042-S02-009,2,Headache,MILD,N,N,2026-04-05,2026-04-18,RECOVERED,"Headache of mild severity, onset day 78, managed conservatively.",5,
042-S02-009,3,Upper respiratory tract infection,MILD,N,N,2026-03-02,2026-03-13,RECOVERED,Investigator assessed upper respiratory tract infection as mild; no change to study drug; recovered.,3,
042-S04-009,1,Hypoglycaemia,MODERATE,N,N,2026-06-25,2026-07-01,RECOVERED,"Hypoglycaemia of moderate severity, onset day 149, managed conservatively.",10,
042-S04-009,2,Hypoglycaemia,MODERATE,N,N,2026-04-09,2026-04-16,RECOVERED,Hypoglycaemia (moderate) noted at follow-up call; duration 7 days.,5,
042-S05-009,1,Dizziness,MILD,N,N,2026-05-10,2026-05-23,RECOVERED,Dizziness (mild) noted at follow-up call; duration 13 days.,7,
042-S06-009,1,Upper respiratory tract infection,MILD,N,N,2026-04-25,2026-04-26,RECOVERED,Investigator assessed upper respiratory tract infection as mild; no change to study drug; recovered.,6,
042-S07-009,1,Hypoglycaemia,MODERATE,N,N,2026-06-14,2026-06-24,RECOVERED,"Subject reported hypoglycaemia on study day 143; moderate intensity, resolved after 10 days.",9,
042-S08-009,1,Dizziness,MILD,N,N,2026-05-20,2026-05-24,RECOVERED,"Subject reported dizziness on study day 115; mild intensity, resolved after 4 days.",11,
042-S08-009,2,Rash,MILD,N,N,2026-05-08,2026-05-17,RECOVERED,"Rash of mild severity, onset day 103, managed conservatively.",10,
042-S08-009,3,Headache,MILD,N,N,2026-03-03,2026-03-13,RECOVERED,"Subject reported headache on study day 37; mild intensity, resolved after 10 days.",6,
042-S09-009,1,Hypoglycaemia,MODERATE,N,N,2026-02-11,2026-02-12,RECOVERED,"Subject reported hypoglycaemia on study day 16; moderate intensity, resolved after 1 days.",2,
042-S09-009,2,Hypoglycaemia,MODERATE,N,N,2026-05-31,2026-06-04,RECOVERED,"Subject reported hypoglycaemia on study day 125; moderate intensity, resolved after 4 days.",8,
042-S09-009,3,Upper respiratory tract infection,MILD,N,N,2026-03-22,2026-04-01,RECOVERED,"Subject reported upper respiratory tract infection on study day 55; mild intensity, resolved after 10 days.",4,
042-S09-009,4,Diarrhoea,MILD,N,N,2026-02-21,2026-02-23,RECOVERED,Investigator assessed diarrhoea as mild; no change to study drug; recovered.,3,
042-S10-009,1,Urinary tract infection,MODERATE,N,N,2026-02-18,2026-02-24,RECOVERED,"Urinary tract infection of moderate severity, onset day 27, managed conservatively.",3,
042-S10-009,2,Rash,MILD,N,N,2026-02-15,2026-02-17,RECOVERED,Rash (mild) noted at follow-up call; duration 2 days.,2,
042-S11-009,1,Upper respiratory tract infection,MILD,N,N,2026-02-15,2026-02-16,RECOVERED,Event reported by subject. Resolved without treatment. No action taken.,6,
042-S11-009,2,Diarrhoea,MILD,N,N,2026-04-09,2026-04-17,RECOVERED,Event reported by subject. Resolved without treatment. No action taken.,6,
042-S12-009,1,Back pain,MILD,N,N,2026-05-13,2026-05-23,RECOVERED,"Back pain of mild severity, onset day 105, managed conservatively.",7,
042-S02-010,1,Hypoglycaemia,MODERATE,N,N,2026-01-16,2026-01-21,RECOVERED,"Subject reported hypoglycaemia on study day -6; moderate intensity, resolved after 5 days.",1,
042-S02-010,2,Headache,MILD,N,N,2026-04-07,2026-04-08,RECOVERED,Investigator assessed headache as mild; no change to study drug; recovered.,5,
042-S03-010,1,Diarrhoea,MILD,N,N,07-APR-2026,15-APR-2026,RECOVERED,"Diarrhoea of mild severity, onset day 75, managed conservatively.",5,
042-S04-010,1,Urinary tract infection,MODERATE,N,N,2026-02-22,2026-03-01,RECOVERED,Investigator assessed urinary tract infection as moderate; no change to study drug; recovered.,3,
042-S05-010,1,Headache,MILD,N,N,2026-03-27,2026-04-05,RECOVERED,"Subject reported headache on study day 64; mild intensity, resolved after 9 days.",5,
042-S05-010,2,Nausea,MILD,N,N,2026-05-12,2026-05-15,RECOVERED,Investigator assessed nausea as mild; no change to study drug; recovered.,7,
042-S06-010,1,Hypoglycaemia,MODERATE,N,N,2026-02-14,2026-02-20,RECOVERED,"Hypoglycaemia of moderate severity, onset day 23, managed conservatively.",2,
042-S07-010,1,Headache,MILD,N,N,2026-04-01,2026-04-02,RECOVERED,Headache (mild) noted at follow-up call; duration 1 days.,5,
042-S08-010,1,Dizziness,MILD,N,N,2026-04-01,2026-04-08,RECOVERED,Investigator assessed dizziness as mild; no change to study drug; recovered.,8,
042-S08-010,2,Upper respiratory tract infection,MILD,N,N,2026-02-03,2026-02-05,RECOVERED,"Subject reported upper respiratory tract infection on study day 6; mild intensity, resolved after 2 days.",5,
042-S08-010,3,Upper respiratory tract infection,MILD,N,N,2026-04-15,2026-04-20,RECOVERED,"Upper respiratory tract infection of mild severity, onset day 77, managed conservatively.",9,
042-S09-010,1,Fatigue,MILD,N,N,2026-01-15,2026-01-20,RECOVERED,"Subject reported fatigue on study day -7; mild intensity, resolved after 5 days.",1,
042-S10-010,1,Hypoglycaemia,MODERATE,N,N,2026-05-07,2026-05-14,RECOVERED,Hypoglycaemia (moderate) noted at follow-up call; duration 7 days.,7,
042-S11-010,1,Headache,MILD,N,N,2026-06-08,2026-06-12,RECOVERED,Event reported by subject. Resolved without treatment. No action taken.,9,
042-S11-010,2,Back pain,MILD,N,N,2026-06-19,2026-07-02,RECOVERED,Event reported by subject. Resolved without treatment. No action taken.,9,
042-S11-010,3,Headache,MILD,N,N,2026-01-26,2026-02-01,RECOVERED,Event reported by subject. Resolved without treatment. No action taken.,6,
042-S12-010,1,Hypoglycaemia,MODERATE,N,N,2026-06-07,2026-06-14,RECOVERED,Investigator assessed hypoglycaemia as moderate; no change to study drug; recovered.,9,
042-S12-010,2,Diarrhoea,MILD,N,N,2026-03-30,2026-04-04,RECOVERED,Diarrhoea (mild) noted at follow-up call; duration 5 days.,5,
042-S01-011,1,Rash,MILD,N,N,2026-04-24,2026-04-30,RECOVERED,Investigator assessed rash as mild; no change to study drug; recovered.,6,
042-S01-011,2,Rash,MILD,N,N,2026-01-25,2026-02-08,RECOVERED,Investigator assessed rash as mild; no change to study drug; recovered.,1,
042-S02-011,1,Dizziness,MILD,N,N,2026-03-18,2026-03-19,RECOVERED,"Subject reported dizziness on study day 45; mild intensity, resolved after 1 days.",4,
042-S03-011,1,Rash,MILD,N,N,10-FEB-2026,20-FEB-2026,RECOVERED,Investigator assessed rash as mild; no change to study drug; recovered.,2,
042-S04-011,1,Headache,MILD,N,N,2026-02-23,2026-03-07,RECOVERED,Headache (mild) noted at follow-up call; duration 12 days.,3,
042-S04-011,2,Diarrhoea,MILD,N,N,2026-04-19,2026-04-25,RECOVERED,Investigator assessed diarrhoea as mild; no change to study drug; recovered.,6,
042-S06-011,1,Urinary tract infection,MODERATE,N,N,2026-02-22,2026-03-01,RECOVERED,"Urinary tract infection of moderate severity, onset day 32, managed conservatively.",3,
042-S06-011,2,Rash,MILD,N,N,2026-06-06,2026-06-08,RECOVERED,Rash (mild) noted at follow-up call; duration 2 days.,9,
042-S08-011,1,Headache,MILD,N,N,2026-03-27,2026-04-08,RECOVERED,"Headache of mild severity, onset day 57, managed conservatively.",8,
042-S09-011,1,Hypoglycaemia,MODERATE,N,N,2026-04-09,2026-04-22,RECOVERED,"Hypoglycaemia of moderate severity, onset day 74, managed conservatively.",5,
042-S09-011,2,Hypoglycaemia,MODERATE,N,N,2026-06-15,2026-06-22,RECOVERED,"Subject reported hypoglycaemia on study day 141; moderate intensity, resolved after 7 days.",9,
042-S09-011,3,Nausea,MILD,N,N,2026-02-16,2026-02-21,RECOVERED,"Nausea of mild severity, onset day 22, managed conservatively.",2,
042-S10-011,1,Urinary tract infection,MODERATE,N,N,2026-02-10,2026-02-22,RECOVERED,"Urinary tract infection of moderate severity, onset day 28, managed conservatively.",2,
042-S10-011,2,Nausea,MILD,N,N,2026-04-10,2026-04-24,RECOVERED,"Nausea of mild severity, onset day 87, managed conservatively.",5,
042-S10-011,3,Diarrhoea,MILD,N,N,2026-04-21,2026-04-24,RECOVERED,"Diarrhoea of mild severity, onset day 98, managed conservatively.",6,
042-S12-011,1,Rash,MILD,N,N,2026-02-06,2026-02-11,RECOVERED,Investigator assessed rash as mild; no change to study drug; recovered.,2,
042-S12-011,2,Urinary tract infection,MODERATE,N,N,2026-05-11,2026-05-17,RECOVERED,Investigator assessed urinary tract infection as moderate; no change to study drug; recovered.,7,
042-S12-011,3,Dizziness,MILD,N,N,2026-04-03,2026-04-11,RECOVERED,Dizziness (mild) noted at follow-up call; duration 8 days.,5,
042-S01-012,1,Dizziness,MILD,N,N,2026-04-05,2026-04-17,RECOVERED,"Subject reported dizziness on study day 75; mild intensity, resolved after 12 days.",5,
042-S03-012,1,Back pain,MILD,N,N,04-MAR-2026,09-MAR-2026,RECOVERED,Investigator assessed back pain as mild; no change to study drug; recovered.,3,
042-S04-012,1,Back pain,MILD,N,N,2026-01-25,2026-01-26,RECOVERED,Investigator assessed back pain as mild; no change to study drug; recovered.,1,
042-S05-012,1,Upper respiratory tract infection,MILD,N,N,2026-03-07,2026-03-17,RECOVERED,Investigator assessed upper respiratory tract infection as mild; no change to study drug; recovered.,4,
042-S05-012,2,Upper respiratory tract infection,MILD,N,N,2026-04-02,2026-04-12,RECOVERED,Upper respiratory tract infection (mild) noted at follow-up call; duration 10 days.,5,
042-S06-012,1,Back pain,MILD,N,N,2026-04-16,2026-04-27,RECOVERED,Investigator assessed back pain as mild; no change to study drug; recovered.,6,
042-S07-012,1,Dizziness,MILD,N,N,2026-02-23,2026-02-25,RECOVERED,Investigator assessed dizziness as mild; no change to study drug; recovered.,3,
042-S09-012,1,Rash,MILD,N,N,2026-04-09,2026-04-17,RECOVERED,Rash (mild) noted at follow-up call; duration 8 days.,5,
042-S09-012,2,Urinary tract infection,MODERATE,N,N,2026-06-29,2026-07-01,RECOVERED,Investigator assessed urinary tract infection as moderate; no change to study drug; recovered.,10,
042-S10-012,1,Headache,MILD,N,N,2026-01-24,2026-02-05,RECOVERED,"Subject reported headache on study day -6; mild intensity, resolved after 12 days.",1,
042-S11-012,1,Diarrhoea,MILD,N,N,2026-04-22,2026-05-01,RECOVERED,Event reported by subject. Resolved without treatment. No action taken.,6,
042-S01-013,1,Hypoglycaemia,MODERATE,N,N,2026-06-16,2026-06-28,RECOVERED,"Hypoglycaemia of moderate severity, onset day 137, managed conservatively.",9,
042-S01-013,2,Upper respiratory tract infection,MILD,N,N,2026-04-27,2026-05-08,RECOVERED,Investigator assessed upper respiratory tract infection as mild; no change to study drug; recovered.,6,
042-S02-013,1,Dizziness,MILD,N,N,2026-01-29,2026-02-01,RECOVERED,Dizziness (mild) noted at follow-up call; duration 3 days.,1,
042-S02-013,2,Upper respiratory tract infection,MILD,N,N,2026-01-30,2026-01-31,RECOVERED,"Upper respiratory tract infection of mild severity, onset day 15, managed conservatively.",2,
042-S03-013,1,Upper respiratory tract infection,MILD,N,N,25-JUN-2026,09-JUL-2026,RECOVERED,Upper respiratory tract infection (mild) noted at follow-up call; duration 14 days.,10,
042-S03-013,2,Diarrhoea,MILD,N,N,30-JUN-2026,01-JUL-2026,RECOVERED,Investigator assessed diarrhoea as mild; no change to study drug; recovered.,10,
042-S04-013,1,Dizziness,MILD,N,N,2026-04-10,2026-04-20,RECOVERED,"Dizziness of mild severity, onset day 88, managed conservatively.",5,
042-S05-013,1,Nausea,MILD,N,N,2026-04-14,2026-04-22,RECOVERED,Investigator assessed nausea as mild; no change to study drug; recovered.,6,
042-S05-013,2,Headache,MILD,N,N,2026-06-19,2026-06-22,RECOVERED,Headache (mild) noted at follow-up call; duration 3 days.,9,
042-S06-013,1,Hypoglycaemia,MODERATE,N,N,2026-02-18,2026-02-22,RECOVERED,Hypoglycaemia (moderate) noted at follow-up call; duration 4 days.,3,
042-S07-013,1,Back pain,MILD,N,N,2026-06-03,2026-06-16,RECOVERED,Back pain (mild) noted at follow-up call; duration 13 days.,8,
042-S08-013,1,Upper respiratory tract infection,MILD,N,N,2026-04-07,2026-04-20,RECOVERED,"Subject reported upper respiratory tract infection on study day 75; mild intensity, resolved after 13 days.",8,
042-S08-013,2,Back pain,MILD,N,N,2026-06-06,2026-06-18,RECOVERED,Back pain (mild) noted at follow-up call; duration 12 days.,12,
042-S09-013,1,Back pain,MILD,N,N,2026-01-10,2026-01-15,RECOVERED,Investigator assessed back pain as mild; no change to study drug; recovered.,1,
042-S09-013,2,Dizziness,MILD,N,N,2026-04-21,2026-04-24,RECOVERED,Investigator assessed dizziness as mild; no change to study drug; recovered.,6,
042-S10-013,1,Fatigue,MILD,N,N,2026-04-09,2026-04-11,RECOVERED,Investigator assessed fatigue as mild; no change to study drug; recovered.,5,
042-S11-013,1,Diarrhoea,MILD,N,N,2026-05-17,2026-05-29,RECOVERED,Event reported by subject. Resolved without treatment. No action taken.,7,
042-S12-013,1,Rash,MILD,N,N,2026-05-21,2026-06-01,RECOVERED,Investigator assessed rash as mild; no change to study drug; recovered.,8,
042-S01-014,1,Urinary tract infection,MODERATE,N,N,2026-04-07,2026-04-11,RECOVERED,Urinary tract infection (moderate) noted at follow-up call; duration 4 days.,5,
042-S03-014,1,Headache,MILD,N,N,13-APR-2026,24-APR-2026,RECOVERED,"Subject reported headache on study day 75; mild intensity, resolved after 11 days.",6,
042-S05-014,1,Rash,MILD,N,N,2026-02-19,2026-02-25,RECOVERED,"Subject reported rash on study day 29; mild intensity, resolved after 6 days.",3,
042-S06-014,1,Rash,MILD,N,N,2026-03-02,2026-03-06,RECOVERED,"Rash of mild severity, onset day 37, managed conservatively.",3,
042-S06-014,2,Fatigue,MILD,N,N,2026-02-17,2026-02-21,RECOVERED,Investigator assessed fatigue as mild; no change to study drug; recovered.,3,
042-S08-014,1,Headache,MILD,N,N,2026-06-22,2026-07-06,RECOVERED,"Subject reported headache on study day 152; mild intensity, resolved after 14 days.",12,
042-S08-014,2,Diarrhoea,MILD,N,N,2026-06-25,2026-07-01,RECOVERED,Diarrhoea (mild) noted at follow-up call; duration 6 days.,13,
042-S09-014,1,Hypoglycaemia,MODERATE,N,N,2026-05-29,2026-06-07,RECOVERED,Hypoglycaemia (moderate) noted at follow-up call; duration 9 days.,8,
042-S09-014,2,Hypoglycaemia,MODERATE,N,N,2026-04-26,2026-05-04,RECOVERED,Hypoglycaemia (moderate) noted at follow-up call; duration 8 days.,6,
042-S09-014,3,Urinary tract infection,MODERATE,N,N,2026-05-24,2026-06-01,RECOVERED,"Subject reported urinary tract infection on study day 118; moderate intensity, resolved after 8 days.",8,
042-S09-014,4,Hypoglycaemia,MODERATE,N,N,2026-03-04,2026-03-16,RECOVERED,"Hypoglycaemia of moderate severity, onset day 37, managed conservatively.",3,
042-S10-014,1,Dizziness,MILD,N,N,2026-06-14,2026-06-21,RECOVERED,Investigator assessed dizziness as mild; no change to study drug; recovered.,9,
042-S11-014,1,Upper respiratory tract infection,MILD,N,N,2026-06-18,2026-06-25,RECOVERED,Event reported by subject. Resolved without treatment. No action taken.,9,
042-S11-014,2,Dizziness,MILD,N,N,2026-06-27,2026-07-08,RECOVERED,Event reported by subject. Resolved without treatment. No action taken.,10,
042-S02-015,1,Urinary tract infection,MODERATE,N,N,2026-01-20,2026-01-27,RECOVERED,Investigator assessed urinary tract infection as moderate; no change to study drug; recovered.,1,
042-S03-015,1,Nausea,MILD,N,N,31-MAR-2026,14-APR-2026,RECOVERED,Investigator assessed nausea as mild; no change to study drug; recovered.,5,
042-S03-015,2,Hypoglycaemia,MODERATE,N,N,17-APR-2026,30-APR-2026,RECOVERED,Investigator assessed hypoglycaemia as moderate; no change to study drug; recovered.,6,
042-S05-015,1,Diarrhoea,MILD,N,N,2026-04-28,2026-05-06,RECOVERED,"Subject reported diarrhoea on study day 95; mild intensity, resolved after 8 days.",6,
042-S07-015,1,Fatigue,MILD,N,N,2026-02-19,2026-03-04,RECOVERED,Investigator assessed fatigue as mild; no change to study drug; recovered.,3,
042-S07-015,2,Back pain,MILD,N,N,2026-02-21,2026-02-28,RECOVERED,"Subject reported back pain on study day 27; mild intensity, resolved after 7 days.",3,
042-S07-015,3,Upper respiratory tract infection,MILD,N,N,2026-03-13,2026-03-20,RECOVERED,"Subject reported upper respiratory tract infection on study day 47; mild intensity, resolved after 7 days.",4,
042-S08-015,1,Hypoglycaemia,MODERATE,N,N,2026-02-25,2026-02-28,RECOVERED,Investigator assessed hypoglycaemia as moderate; no change to study drug; recovered.,6,
042-S09-015,1,Rash,MILD,N,N,2026-05-10,2026-05-18,RECOVERED,"Subject reported rash on study day 99; mild intensity, resolved after 8 days.",7,
042-S09-015,2,Headache,MILD,N,N,2026-05-15,2026-05-22,RECOVERED,Investigator assessed headache as mild; no change to study drug; recovered.,7,
042-S11-015,1,Back pain,MILD,N,N,2026-04-01,2026-04-10,RECOVERED,Event reported by subject. Resolved without treatment. No action taken.,6,
042-S11-015,2,Nausea,MILD,N,N,2026-03-30,2026-04-12,RECOVERED,Event reported by subject. Resolved without treatment. No action taken.,6,
042-S11-015,3,Back pain,MILD,N,N,2026-02-16,2026-02-27,RECOVERED,Event reported by subject. Resolved without treatment. No action taken.,6,
042-S12-015,1,Back pain,MILD,N,N,2026-07-06,2026-07-12,RECOVERED,"Subject reported back pain on study day 157; mild intensity, resolved after 6 days.",10,
042-S02-016,1,Headache,MILD,N,N,2026-03-09,2026-03-10,RECOVERED,Investigator assessed headache as mild; no change to study drug; recovered.,4,
042-S02-016,2,Headache,MILD,N,N,2026-04-09,2026-04-11,RECOVERED,"Subject reported headache on study day 70; mild intensity, resolved after 2 days.",5,
042-S03-016,1,Hypoglycaemia,MODERATE,N,N,18-JAN-2026,29-JAN-2026,RECOVERED,"Hypoglycaemia of moderate severity, onset day -4, managed conservatively.",1,
042-S04-016,1,Back pain,MILD,N,N,2026-03-11,2026-03-17,RECOVERED,Investigator assessed back pain as mild; no change to study drug; recovered.,4,
042-S04-016,2,Fatigue,MILD,N,N,2026-03-17,2026-03-18,RECOVERED,Investigator assessed fatigue as mild; no change to study drug; recovered.,4,
042-S06-016,1,Dizziness,MILD,N,N,2026-04-20,2026-05-01,RECOVERED,Dizziness (mild) noted at follow-up call; duration 11 days.,6,
042-S07-016,1,Fatigue,MILD,N,N,2026-01-24,2026-01-30,RECOVERED,Fatigue (mild) noted at follow-up call; duration 6 days.,1,
042-S07-016,2,Dizziness,MILD,N,N,2026-02-04,2026-02-17,RECOVERED,Dizziness (mild) noted at follow-up call; duration 13 days.,2,
042-S08-016,1,Urinary tract infection,MODERATE,N,N,2026-06-08,2026-06-14,RECOVERED,"Subject reported urinary tract infection on study day 136; moderate intensity, resolved after 6 days.",12,
042-S09-016,1,Back pain,MILD,N,N,2026-03-06,2026-03-11,RECOVERED,"Subject reported back pain on study day 48; mild intensity, resolved after 5 days.",3,
042-S10-016,1,Urinary tract infection,MODERATE,N,N,2026-02-24,2026-02-28,RECOVERED,"Subject reported urinary tract infection on study day 34; moderate intensity, resolved after 4 days.",3,
042-S10-016,2,Back pain,MILD,N,N,2026-02-12,2026-02-21,RECOVERED,Back pain (mild) noted at follow-up call; duration 9 days.,2,
042-S11-016,1,Headache,MILD,N,N,2026-05-29,2026-06-03,RECOVERED,Event reported by subject. Resolved without treatment. No action taken.,8,
042-S12-016,1,Rash,MILD,N,N,2026-03-22,2026-03-28,RECOVERED,"Subject reported rash on study day 69; mild intensity, resolved after 6 days.",4,
042-S12-016,2,Nausea,MILD,N,N,2026-04-03,2026-04-07,RECOVERED,"Nausea of mild severity, onset day 81, managed conservatively.",5,
042-S01-017,1,Pneumonia,SEVERE,Y,Y,2026-06-02,2026-06-15,RECOVERED,Pneumonia (severe) noted at follow-up call; duration 13 days.,8,
042-S01-017,2,Nausea,MILD,N,N,2026-05-18,2026-05-22,RECOVERED,Investigator assessed nausea as mild; no change to study drug; recovered.,8,
042-S02-017,1,Dizziness,MILD,N,N,2026-04-30,2026-05-13,RECOVERED,"Subject reported dizziness on study day 88; mild intensity, resolved after 13 days.",7,
042-S02-017,2,Urinary tract infection,MODERATE,N,N,2026-03-03,2026-03-15,RECOVERED,"Subject reported urinary tract infection on study day 30; moderate intensity, resolved after 12 days.",3,
042-S03-017,1,Rash,MILD,N,N,16-JUN-2026,19-JUN-2026,RECOVERED,Rash (mild) noted at follow-up call; duration 3 days.,9,
042-S04-017,1,Diarrhoea,MILD,N,N,2026-04-04,2026-04-11,RECOVERED,"Subject reported diarrhoea on study day 75; mild intensity, resolved after 7 days.",5,
042-S08-017,1,Rash,MILD,N,N,2026-06-27,2026-07-08,RECOVERED,"Subject reported rash on study day 160; mild intensity, resolved after 11 days.",13,
042-S08-017,2,Upper respiratory tract infection,MILD,N,N,2026-04-15,2026-04-29,RECOVERED,Investigator assessed upper respiratory tract infection as mild; no change to study drug; recovered.,9,
042-S09-017,1,Upper respiratory tract infection,MILD,N,N,2026-05-27,2026-06-01,RECOVERED,"Upper respiratory tract infection of mild severity, onset day 123, managed conservatively.",8,
042-S10-017,1,Headache,MILD,N,N,2026-04-28,2026-05-04,RECOVERED,Headache (mild) noted at follow-up call; duration 6 days.,6,
042-S11-017,1,Urinary tract infection,MODERATE,N,N,2026-03-19,2026-03-22,RECOVERED,Event reported by subject. Resolved without treatment. No action taken.,6,
042-S12-017,1,Hypoglycaemia,MODERATE,N,N,2026-06-24,2026-06-28,RECOVERED,"Subject reported hypoglycaemia on study day 150; moderate intensity, resolved after 4 days.",10,
042-S01-018,1,Upper respiratory tract infection,MILD,N,N,2026-05-29,2026-06-03,RECOVERED,"Upper respiratory tract infection of mild severity, onset day 129, managed conservatively.",8,
042-S02-018,1,Rash,MILD,N,N,2026-05-31,2026-06-02,RECOVERED,Investigator assessed rash as mild; no change to study drug; recovered.,8,
042-S02-018,2,Back pain,MILD,N,N,2026-04-06,2026-04-09,RECOVERED,Investigator assessed back pain as mild; no change to study drug; recovered.,5,
042-S03-018,1,Dizziness,MILD,N,N,10-FEB-2026,22-FEB-2026,RECOVERED,Dizziness (mild) noted at follow-up call; duration 12 days.,2,
042-S03-018,2,Fatigue,MILD,N,N,01-MAY-2026,09-MAY-2026,RECOVERED,"Subject reported fatigue on study day 99; mild intensity, resolved after 8 days.",7,
042-S04-018,1,Headache,MILD,N,N,2026-04-29,2026-05-08,RECOVERED,"Subject reported headache on study day 102; mild intensity, resolved after 9 days.",6,
042-S05-018,1,Diarrhoea,MILD,N,N,2026-03-06,2026-03-12,RECOVERED,Investigator assessed diarrhoea as mild; no change to study drug; recovered.,3,
042-S06-018,1,Diarrhoea,MILD,N,N,2026-03-13,2026-03-16,RECOVERED,"Subject reported diarrhoea on study day 50; mild intensity, resolved after 3 days.",4,
042-S08-018,1,Urinary tract infection,MODERATE,N,N,2026-02-25,2026-03-03,RECOVERED,"Urinary tract infection of moderate severity, onset day 31, managed conservatively.",6,
042-S09-018,1,Fatigue,MILD,N,N,2026-02-23,2026-03-03,RECOVERED,Investigator assessed fatigue as mild; no change to study drug; recovered.,3,
042-S10-018,1,Urinary tract infection,MODERATE,N,N,2026-05-04,2026-05-07,RECOVERED,Urinary tract infection (moderate) noted at follow-up call; duration 3 days.,7,
042-S11-018,1,Upper respiratory tract infection,MILD,N,N,2026-03-26,2026-03-28,RECOVERED,Event reported by subject. Resolved without treatment. No action taken.,6,
042-S12-018,1,Urinary tract infection,MODERATE,N,N,2026-04-02,2026-04-14,RECOVERED,Urinary tract infection (moderate) noted at follow-up call; duration 12 days.,5,
042-S12-018,2,Fatigue,MILD,N,N,2026-06-13,2026-06-25,RECOVERED,"Fatigue of mild severity, onset day 132, managed conservatively.",9,
042-S02-019,1,Headache,MILD,N,N,2026-03-15,2026-03-29,RECOVERED,"Headache of mild severity, onset day 55, managed conservatively.",4,
042-S02-019,2,Upper respiratory tract infection,MILD,N,N,2026-02-16,2026-02-19,RECOVERED,Investigator assessed upper respiratory tract infection as mild; no change to study drug; recovered.,2,
042-S02-019,3,Back pain,MILD,N,N,2026-02-26,2026-03-01,RECOVERED,"Back pain of mild severity, onset day 38, managed conservatively.",3,
042-S03-019,1,Rash,MILD,N,N,20-MAR-2026,31-MAR-2026,RECOVERED,Investigator assessed rash as mild; no change to study drug; recovered.,4,
042-S03-019,2,Dizziness,MILD,N,N,15-MAR-2026,25-MAR-2026,RECOVERED,"Dizziness of mild severity, onset day 42, managed conservatively.",4,
042-S04-019,1,Urinary tract infection,MODERATE,N,N,2026-05-21,2026-05-31,RECOVERED,"Subject reported urinary tract infection on study day 120; moderate intensity, resolved after 10 days.",8,
042-S05-019,1,Diarrhoea,MILD,N,N,2026-04-04,2026-04-17,RECOVERED,Investigator assessed diarrhoea as mild; no change to study drug; recovered.,5,
042-S06-019,1,Headache,MILD,N,N,2026-02-04,2026-02-16,RECOVERED,"Headache of mild severity, onset day 11, managed conservatively.",2,
042-S06-019,2,Diarrhoea,MILD,N,N,2026-04-26,2026-04-30,RECOVERED,Investigator assessed diarrhoea as mild; no change to study drug; recovered.,6,
042-S08-019,1,Urinary tract infection,MODERATE,N,N,2026-04-04,2026-04-11,RECOVERED,Investigator assessed urinary tract infection as moderate; no change to study drug; recovered.,8,
042-S09-019,1,Back pain,MILD,N,N,2026-03-05,2026-03-08,RECOVERED,"Subject reported back pain on study day 34; mild intensity, resolved after 3 days.",3,
042-S09-019,2,Hypoglycaemia,MODERATE,N,N,2026-07-03,2026-07-13,RECOVERED,"Hypoglycaemia of moderate severity, onset day 154, managed conservatively.",10,
042-S10-019,1,Headache,MILD,N,N,2026-03-22,2026-03-26,RECOVERED,"Headache of mild severity, onset day 63, managed conservatively.",4,
042-S11-019,1,Urinary tract infection,MODERATE,N,N,2026-04-26,2026-05-01,RECOVERED,Event reported by subject. Resolved without treatment. No action taken.,6,
042-S12-019,1,Upper respiratory tract infection,MILD,N,N,2026-04-23,2026-04-26,RECOVERED,"Upper respiratory tract infection of mild severity, onset day 101, managed conservatively.",6,
042-S02-020,1,Dizziness,MILD,N,N,2026-05-31,2026-06-09,RECOVERED,Dizziness (mild) noted at follow-up call; duration 9 days.,8,
042-S03-020,1,Diarrhoea,MILD,N,N,31-MAR-2026,04-APR-2026,RECOVERED,Diarrhoea (mild) noted at follow-up call; duration 4 days.,5,
042-S04-020,1,Headache,MILD,N,N,2026-05-10,2026-05-20,RECOVERED,"Subject reported headache on study day 111; mild intensity, resolved after 10 days.",7,
042-S04-020,2,Fatigue,MILD,N,N,2026-02-05,2026-02-19,RECOVERED,"Fatigue of mild severity, onset day 17, managed conservatively.",2,
042-S05-020,1,Dizziness,MILD,N,N,2026-05-14,2026-05-16,RECOVERED,Dizziness (mild) noted at follow-up call; duration 2 days.,7,
042-S07-020,1,Hypoglycaemia,MODERATE,N,N,2026-04-25,2026-05-01,RECOVERED,"Subject reported hypoglycaemia on study day 90; moderate intensity, resolved after 6 days.",6,
042-S08-020,1,Diarrhoea,MILD,N,N,2026-04-24,2026-04-30,RECOVERED,Diarrhoea (mild) noted at follow-up call; duration 6 days.,9,
042-S10-020,1,Diarrhoea,MILD,N,N,2026-06-05,2026-06-18,RECOVERED,Investigator assessed diarrhoea as mild; no change to study drug; recovered.,9,
042-S11-020,1,Fatigue,MILD,N,N,2026-03-14,2026-03-21,RECOVERED,Event reported by subject. Resolved without treatment. No action taken.,6,
042-S11-020,2,Hypoglycaemia,MODERATE,N,N,2026-05-14,2026-05-19,RECOVERED,Event reported by subject. Resolved without treatment. No action taken.,7,
042-S12-020,1,Nausea,MILD,N,N,2026-03-14,2026-03-18,RECOVERED,"Nausea of mild severity, onset day 49, managed conservatively.",4,
