USUBJID,VSSEQ,VISIT,VSDTC,VSTESTCD,VSORRES,VSORRESU,cut_available,corrected_at_cut
042-S01-001,1,SCREENING,2026-01-15,SYSBP,121.0,mmHg,1,
042-S01-001,2,SCREENING,2026-01-15,DIABP,72.0,mmHg,1,
042-S01-001,3,SCREENING,2026-01-15,PULSE,72.0,bpm,1,
042-S01-001,4,BASELINE,2026-01-31,SYSBP,122.0,mmHg,2,
042-S01-001,5,BASELINE,2026-01-31,DIABP,75.0,mmHg,2,
042-S01-001,6,BASELINE,2026-01-31,PULSE,65.0,bpm,2,
042-S01-001,7,WEEK2,2026-02-15,SYSBP,135.0,mmHg,2,
042-S01-001,8,WEEK2,2026-02-15,DIABP,91.0,mmHg,2,
042-S01-001,9,WEEK2,2026-02-15,PULSE,65.0,bpm,2,
042-S01-001,10,WEEK4,2026-03-02,SYSBP,132.0,mmHg,3,
042-S01-001,11,WEEK4,2026-03-02,DIABP,85.0,mmHg,3,
042-S01-001,12,WEEK4,2026-03-02,PULSE,67.0,bpm,3,
042-S01-001,13,WEEK8,2026-03-30,SYSBP,135.0,mmHg,5,
042-S01-001,14,WEEK8,2026-03-30,DIABP,86.0,mmHg,5,
042-S01-001,15,WEEK8,2026-03-30,PULSE,88.0,bpm,5,
042-S01-001,16,WEEK12,2026-04-24,SYSBP,131.0,mmHg,6,
042-S01-001,17,WEEK12,2026-04-24,DIABP,91.0,mmHg,6,
042-S01-001,18,WEEK12,2026-04-24,PULSE,71.0,bpm,6,
042-S01-001,19,WEEK16,2026-05-23,SYSBP,134.0,mmHg,8,
042-S01-001,20,WEEK16,2026-05-23,DIABP,83.0,mmHg,8,
042-S01-001,21,WEEK16,2026-05-23,PULSE,69.0,bpm,8,
042-S01-001,22,WEEK20,2026-06-19,SYSBP,141.0,mmHg,9,
042-S01-001,23,WEEK20,2026-06-19,DIABP,85.0,mmHg,9,
042-S01-001,24,WEEK20,2026-06-19,PULSE,73.0,bpm,9,
042-S01-001,25,WEEK24,2026-07-17,SYSBP,131.0,mmHg,11,
042-S01-001,26,WEEK24,2026-07-17,DIABP,76.0,mmHg,11,
042-S01-001,27,WEEK24,2026-07-17,PULSE,66.0,bpm,11,
042-S01-001,28,EOS,2026-08-02,SYSBP,142.0,mmHg,12,
042-S01-001,29,EOS,2026-08-02,DIABP,85.0,mmHg,12,
042-S01-001,30,EOS,2026-08-02,PULSE,79.0,bpm,12,
042-S02-001,1,SCREENING,2026-01-05,SYSBP,134.0,mmHg,1,
042-S02-001,2,SCREENING,2026-01-05,DIABP,83.0,mmHg,1,
042-S02-001,3,SCREENING,2026-01-05,PULSE,70.0,bpm,1,
042-S02-001,4,BASELINE,2026-01-22,SYSBP,135.0,mmHg,1,
042-S02-001,5,BASELINE,2026-01-22,DIABP,69.0,mmHg,1,
042-S02-001,6,BASELINE,2026-01-22,PULSE,63.0,bpm,1,
042-S02-001,7,WEEK2,2026-02-02,SYSBP,125.0,mmHg,2,
042-S02-001,8,WEEK2,2026-02-02,DIABP,69.0,mmHg,2,
042-S02-001,9,WEEK2,2026-02-02,PULSE,89.0,bpm,2,
042-S02-001,10,WEEK4,2026-02-16,SYSBP,132.0,mmHg,2,
042-S02-001,11,WEEK4,2026-02-16,DIABP,87.0,mmHg,2,
042-S02-001,12,WEEK4,2026-02-16,PULSE,66.0,bpm,2,
042-S02-001,13,WEEK8,2026-03-19,SYSBP,136.0,mmHg,4,
042-S02-001,14,WEEK8,2026-03-19,DIABP,92.0,mmHg,4,
042-S02-001,15,WEEK8,2026-03-19,PULSE,70.0,bpm,4,
042-S02-001,16,WEEK12,2026-04-15,SYSBP,139.0,mmHg,6,
042-S02-001,17,WEEK12,2026-04-15,DIABP,79.0,mmHg,6,
042-S02-001,18,WEEK12,2026-04-15,PULSE,76.0,bpm,6,
042-S02-001,19,WEEK16,2026-05-12,SYSBP,126.0,mmHg,7,
042-S02-001,20,WEEK16,2026-05-12,DIABP,83.0,mmHg,7,
042-S02-001,21,WEEK16,2026-05-12,PULSE,68.0,bpm,7,
042-S02-001,22,WEEK20,2026-06-09,SYSBP,114.0,mmHg,9,
042-S02-001,23,WEEK20,2026-06-09,DIABP,89.0,mmHg,9,
042-S02-001,24,WEEK20,2026-06-09,PULSE,70.0,bpm,9,
042-S02-001,25,WEEK24,2026-07-09,SYSBP,129.0,mmHg,10,
042-S02-001,26,WEEK24,2026-07-09,DIABP,88.0,mmHg,10,
042-S02-001,27,WEEK24,2026-07-09,PULSE,74.0,bpm,10,
042-S02-001,28,EOS,2026-07-19,SYSBP,135.0,mmHg,11,
042-S02-001,29,EOS,2026-07-19,DIABP,86.0,mmHg,11,
042-S02-001,30,EOS,2026-07-19,PULSE,82.0,bpm,11,
042-S03-001,1,SCREENING,12-JAN-2026,SYSBP,116.0,mmHg,1,
042-S03-001,2,SCREENING,12-JAN-2026,DIABP,90.0,mmHg,1,
042-S03-001,3,SCREENING,12-JAN-2026,PULSE,74.0,bpm,1,
042-S03-001,4,BASELINE,30-JAN-2026,SYSBP,137.0,mmHg,2,
042-S03-001,5,BASELINE,30-JAN-2026,DIABP,73.0,mmHg,2,
042-S03-001,6,BASELINE,30-JAN-2026,PULSE,84.0,bpm,2,
042-S03-001,7,WEEK2,12-FEB-2026,SYSBP,120.0,mmHg,2,
042-S03-001,8,WEEK2,12-FEB-2026,DIABP,82.0,mmHg,2,
042-S03-001,9,WEEK2,12-FEB-2026,PULSE,77.0,bpm,2,
042-S03-001,10,WEEK4,26-FEB-2026,SYSBP,130.0,mmHg,3,
042-S03-001,11,WEEK4,26-FEB-2026,DIABP,89.0,mmHg,3,
042-S03-001,12,WEEK4,26-FEB-2026,PULSE,82.0,bpm,3,
042-S03-001,13,WEEK8,27-MAR-2026,SYSBP,113.0,mmHg,5,
042-S03-001,14,WEEK8,27-MAR-2026,DIABP,95.0,mmHg,5,
042-S03-001,15,WEEK8,27-MAR-2026,PULSE,76.0,bpm,5,
042-S03-001,16,WEEK12,21-APR-2026,SYSBP,146.0,mmHg,6,
042-S03-001,17,WEEK12,21-APR-2026,DIABP,94.0,mmHg,6,
042-S03-001,18,WEEK12,21-APR-2026,PULSE,61.0,bpm,6,
042-S03-001,19,WEEK16,19-MAY-2026,SYSBP,128.0,mmHg,8,
042-S03-001,20,WEEK16,19-MAY-2026,DIABP,90.0,mmHg,8,
042-S03-001,21,WEEK16,19-MAY-2026,PULSE,65.0,bpm,8,
042-S03-001,22,WEEK20,15-JUN-2026,SYSBP,129.0,mmHg,9,
042-S03-001,23,WEEK20,15-JUN-2026,DIABP,90.0,mmHg,9,
042-S03-001,24,WEEK20,15-JUN-2026,PULSE,70.0,bpm,9,
042-S03-001,25,WEEK24,13-JUL-2026,SYSBP,130.0,mmHg,11,
042-S03-001,26,WEEK24,13-JUL-2026,DIABP,84.0,mmHg,11,
042-S03-001,27,WEEK24,13-JUL-2026,PULSE,57.0,bpm,11,
042-S03-001,28,EOS,28-JUL-2026,SYSBP,135.0,mmHg,11,
042-S03-001,29,EOS,28-JUL-2026,DIABP,83.0,mmHg,11,
042-S03-001,30,EOS,28-JUL-2026,PULSE,84.0,bpm,11,
042-S04-001,1,SCREENING,2026-01-18,SYSBP,116.0,mmHg,1,
042-S04-001,2,SCREENING,2026-01-18,DIABP,87.0,mmHg,1,
042-S04-001,3,SCREENING,2026-01-18,PULSE,70.0,bpm,1,
042-S04-001,4,BASELINE,2026-01-31,SYSBP,112.0,mmHg,2,
042-S04-001,5,BASELINE,2026-01-31,DIABP,85.0,mmHg,2,
042-S04-001,6,BASELINE,2026-01-31,PULSE,74.0,bpm,2,
042-S04-001,7,WEEK2,2026-02-14,SYSBP,134.0,mmHg,2,
042-S04-001,8,WEEK2,2026-02-14,DIABP,81.0,mmHg,2,
042-S04-001,9,WEEK2,2026-02-14,PULSE,64.0,bpm,2,
042-S04-001,10,WEEK4,2026-03-02,SYSBP,120.0,mmHg,3,
042-S04-001,11,WEEK4,2026-03-02,DIABP,75.0,mmHg,3,
042-S04-001,12,WEEK4,2026-03-02,PULSE,79.0,bpm,3,
042-S04-001,13,WEEK8,2026-03-26,SYSBP,122.0,mmHg,5,
042-S04-001,14,WEEK8,2026-03-26,DIABP,71.0,mmHg,5,
042-S04-001,15,WEEK8,2026-03-26,PULSE,67.0,bpm,5,
042-S04-001,16,WEEK12,2026-04-25,SYSBP,137.0,mmHg,6,
042-S04-001,17,WEEK12,2026-04-25,DIABP,81.0,mmHg,6,
042-S04-001,18,WEEK12,2026-04-25,PULSE,75.0,bpm,6,
042-S04-001,19,WEEK16,2026-05-21,SYSBP,141.0,mmHg,8,
042-S04-001,20,WEEK16,2026-05-21,DIABP,68.0,mmHg,8,
042-S04-001,21,WEEK16,2026-05-21,PULSE,69.0,bpm,8,
042-S04-001,22,WEEK20,2026-06-21,SYSBP,145.0,mmHg,9,
042-S04-001,23,WEEK20,2026-06-21,DIABP,73.0,mmHg,9,
042-S04-001,24,WEEK20,2026-06-21,PULSE,79.0,bpm,9,
042-S04-001,25,WEEK24,2026-07-19,SYSBP,141.0,mmHg,11,
042-S04-001,26,WEEK24,2026-07-19,DIABP,67.0,mmHg,11,
042-S04-001,27,WEEK24,2026-07-19,PULSE,62.0,bpm,11,
042-S04-001,28,EOS,2026-07-23,SYSBP,122.0,mmHg,11,
042-S04-001,29,EOS,2026-07-23,DIABP,93.0,mmHg,11,
042-S04-001,30,EOS,2026-07-23,PULSE,73.0,bpm,11,
042-S05-001,1,SCREENING,2026-01-10,SYSBP,126.0,mmHg,1,
042-S05-001,2,SCREENING,2026-01-10,DIABP,75.0,mmHg,1,
042-S05-001,3,SCREENING,2026-01-10,PULSE,64.0,bpm,1,
042-S05-001,4,BASELINE,2026-01-25,SYSBP,126.0,mmHg,1,
042-S05-001,5,BASELINE,2026-01-25,DIABP,79.0,mmHg,1,
042-S05-001,6,BASELINE,2026-01-25,PULSE,73.0,bpm,1,
042-S05-001,7,WEEK2,2026-02-04,SYSBP,138.0,mmHg,2,
042-S05-001,8,WEEK2,2026-02-04,DIABP,87.0,mmHg,2,
042-S05-001,9,WEEK2,2026-02-04,PULSE,87.0,bpm,2,
042-S05-001,10,WEEK4,2026-02-18,SYSBP,122.0,mmHg,3,
042-S05-001,11,WEEK4,2026-02-18,DIABP,64.0,mmHg,3,
042-S05-001,12,WEEK4,2026-02-18,PULSE,74.0,bpm,3,
042-S05-001,13,WEEK8,2026-03-20,SYSBP,118.0,mmHg,4,
042-S05-001,14,WEEK8,2026-03-20,DIABP,91.0,mmHg,4,
042-S05-001,15,WEEK8,2026-03-20,PULSE,71.0,bpm,4,
042-S05-001,16,WEEK12,2026-04-17,SYSBP,124.0,mmHg,6,
042-S05-001,17,WEEK12,2026-04-17,DIABP,90.0,mmHg,6,
042-S05-001,18,WEEK12,2026-04-17,PULSE,87.0,bpm,6,
042-S05-001,19,WEEK16,2026-05-14,SYSBP,130.0,mmHg,7,
042-S05-001,20,WEEK16,2026-05-14,DIABP,90.0,mmHg,7,
042-S05-001,21,WEEK16,2026-05-14,PULSE,73.0,bpm,7,
042-S05-001,22,WEEK20,2026-06-12,SYSBP,136.0,mmHg,9,
042-S05-001,23,WEEK20,2026-06-12,DIABP,88.0,mmHg,9,
042-S05-001,24,WEEK20,2026-06-12,PULSE,86.0,bpm,9,
042-S05-001,25,WEEK24,2026-07-09,SYSBP,118.0,mmHg,10,
042-S05-001,26,WEEK24,2026-07-09,DIABP,92.0,mmHg,10,
042-S05-001,27,WEEK24,2026-07-09,PULSE,71.0,bpm,10,
042-S05-001,28,EOS,2026-07-24,SYSBP,106.0,mmHg,11,
042-S05-001,29,EOS,2026-07-24,DIABP,86.0,mmHg,11,
042-S05-001,30,EOS,2026-07-24,PULSE,82.0,bpm,11,
042-S06-001,1,SCREENING,2025-12-31,SYSBP,125.0,mmHg,1,
042-S06-001,2,SCREENING,2025-12-31,DIABP,83.0,mmHg,1,
042-S06-001,3,SCREENING,2025-12-31,PULSE,93.0,bpm,1,
042-S06-001,4,BASELINE,2026-01-17,SYSBP,141.0,mmHg,1,
042-S06-001,5,BASELINE,2026-01-17,DIABP,94.0,mmHg,1,
042-S06-001,6,BASELINE,2026-01-17,PULSE,83.0,bpm,1,
042-S06-001,7,WEEK2,2026-01-29,SYSBP,130.0,mmHg,1,
042-S06-001,8,WEEK2,2026-01-29,DIABP,60.0,mmHg,1,
042-S06-001,9,WEEK2,2026-01-29,PULSE,69.0,bpm,1,
042-S06-001,10,WEEK4,2026-02-11,SYSBP,117.0,mmHg,2,
042-S06-001,11,WEEK4,2026-02-11,DIABP,85.0,mmHg,2,
042-S06-001,12,WEEK4,2026-02-11,PULSE,74.0,bpm,2,
042-S06-001,13,WEEK8,2026-03-14,SYSBP,133.0,mmHg,4,
042-S06-001,14,WEEK8,2026-03-14,DIABP,106.0,mmHg,4,
042-S06-001,15,WEEK8,2026-03-14,PULSE,78.0,bpm,4,
042-S06-001,16,WEEK12,2026-04-08,SYSBP,119.0,mmHg,5,
042-S06-001,17,WEEK12,2026-04-08,DIABP,84.0,mmHg,5,
042-S06-001,18,WEEK12,2026-04-08,PULSE,79.0,bpm,5,
042-S06-001,19,WEEK16,2026-05-08,SYSBP,119.0,mmHg,7,
042-S06-001,20,WEEK16,2026-05-08,DIABP,79.0,mmHg,7,
042-S06-001,21,WEEK16,2026-05-08,PULSE,69.0,bpm,7,
042-S06-001,22,WEEK20,2026-06-04,SYSBP,128.0,mmHg,8,
042-S06-001,23,WEEK20,2026-06-04,DIABP,76.0,mmHg,8,
042-S06-001,24,WEEK20,2026-06-04,PULSE,84.0,bpm,8,
042-S06-001,25,WEEK24,2026-07-03,SYSBP,138.0,mmHg,10,
042-S06-001,26,WEEK24,2026-07-03,DIABP,84.0,mmHg,10,
042-S06-001,27,WEEK24,2026-07-03,PULSE,68.0,bpm,10,
042-S06-001,28,EOS,2026-07-14,SYSBP,120.0,mmHg,11,
042-S06-001,29,EOS,2026-07-14,DIABP,73.0,mmHg,11,
042-S06-001,30,EOS,2026-07-14,PULSE,82.0,bpm,11,
042-S07-001,1,SCREENING,2026-01-17,SYSBP,139.0,mmHg,1,
042-S07-001,2,SCREENING,2026-01-17,DIABP,87.0,mmHg,1,
042-S07-001,3,SCREENING,2026-01-17,PULSE,70.0,bpm,1,
042-S07-001,4,BASELINE,2026-01-31,SYSBP,126.0,mmHg,2,
042-S07-001,5,BASELINE,2026-01-31,DIABP,80.0,mmHg,2,
042-S07-001,6,BASELINE,2026-01-31,PULSE,67.0,bpm,2,
042-S07-001,7,WEEK2,2026-02-15,SYSBP,130.0,mmHg,2,
042-S07-001,8,WEEK2,2026-02-15,DIABP,103.0,mmHg,2,
042-S07-001,9,WEEK2,2026-02-15,PULSE,76.0,bpm,2,
042-S07-001,10,WEEK4,2026-02-27,SYSBP,141.0,mmHg,3,
042-S07-001,11,WEEK4,2026-02-27,DIABP,76.0,mmHg,3,
042-S07-001,12,WEEK4,2026-02-27,PULSE,71.0,bpm,3,
042-S07-001,13,WEEK8,2026-03-30,SYSBP,148.0,mmHg,5,
042-S07-001,14,WEEK8,2026-03-30,DIABP,84.0,mmHg,5,
042-S07-001,15,WEEK8,2026-03-30,PULSE,79.0,bpm,5,
042-S07-001,16,WEEK12,2026-04-24,SYSBP,129.0,mmHg,6,
042-S07-001,17,WEEK12,2026-04-24,DIABP,73.0,mmHg,6,
042-S07-001,18,WEEK12,2026-04-24,PULSE,77.0,bpm,6,
042-S07-001,19,WEEK16,2026-05-25,SYSBP,131.0,mmHg,8,
042-S07-001,20,WEEK16,2026-05-25,DIABP,79.0,mmHg,8,
042-S07-001,21,WEEK16,2026-05-25,PULSE,61.0,bpm,8,
042-S07-001,22,WEEK20,2026-06-22,SYSBP,139.0,mmHg,9,
042-S07-001,23,WEEK20,2026-06-22,DIABP,83.0,mmHg,9,
042-S07-001,24,WEEK20,2026-06-22,PULSE,74.0,bpm,9,
042-S07-001,25,WEEK24,2026-07-19,SYSBP,126.0,mmHg,11,
042-S07-001,26,WEEK24,2026-07-19,DIABP,80.0,mmHg,11,
042-S07-001,27,WEEK24,2026-07-19,PULSE,68.0,bpm,11,
042-S07-001,28,EOS,2026-07-30,SYSBP,127.0,mmHg,12,
042-S07-001,29,EOS,2026-07-30,DIABP,76.0,mmHg,12,
042-S07-001,30,EOS,2026-07-30,PULSE,59.0,bpm,12,
042-S08-001,1,SCREENING,2025-12-30,SYSBP,124.0,mmHg,4,
042-S08-001,2,SCREENING,2025-12-30,DIABP,74.0,mmHg,4,
042-S08-001,3,SCREENING,2025-12-30,PULSE,83.0,bpm,4,
042-S08-001,4,BASELINE,2026-01-13,SYSBP,130.0,mmHg,4,
042-S08-001,5,BASELINE,2026-01-13,DIABP,96.0,mmHg,4,
042-S08-001,6,BASELINE,2026-01-13,PULSE,72.0,bpm,4,
042-S08-001,7,WEEK2,2026-01-26,SYSBP,119.0,mmHg,4,
042-S08-001,8,WEEK2,2026-01-26,DIABP,80.0,mmHg,4,
042-S08-001,9,WEEK2,2026-01-26,PULSE,63.0,bpm,4,
042-S08-001,10,WEEK4,2026-02-11,SYSBP,133.0,mmHg,5,
042-S08-001,11,WEEK4,2026-02-11,DIABP,92.0,mmHg,5,
042-S08-001,12,WEEK4,2026-02-11,PULSE,84.0,bpm,5,
042-S08-001,13,WEEK8,2026-03-11,SYSBP,132.0,mmHg,7,
042-S08-001,14,WEEK8,2026-03-11,DIABP,74.0,mmHg,7,
042-S08-001,15,WEEK8,2026-03-11,PULSE,64.0,bpm,7,
042-S08-001,16,WEEK12,2026-04-05,SYSBP,143.0,mmHg,8,
042-S08-001,17,WEEK12,2026-04-05,DIABP,75.0,mmHg,8,
042-S08-001,18,WEEK12,2026-04-05,PULSE,71.0,bpm,8,
042-S08-001,19,WEEK16,2026-05-06,SYSBP,132.0,mmHg,10,
042-S08-001,20,WEEK16,2026-05-06,DIABP,92.0,mmHg,10,
042-S08-001,21,WEEK16,2026-05-06,PULSE,67.0,bpm,10,
042-S08-001,22,WEEK20,2026-06-01,SYSBP,132.0,mmHg,11,
042-S08-001,23,WEEK20,2026-06-01,DIABP,87.0,mmHg,11,
042-S08-001,24,WEEK20,2026-06-01,PULSE,65.0,bpm,11,
042-S08-001,25,WEEK24,2026-06-28,SYSBP,117.0,mmHg,13,
042-S08-001,26,WEEK24,2026-06-28,DIABP,82.0,mmHg,13,
042-S08-001,27,WEEK24,2026-06-28,PULSE,77.0,bpm,13,
042-S08-001,28,EOS,2026-07-13,SYSBP,137.0,mmHg,14,
042-S08-001,29,EOS,2026-07-13,DIABP,79.0,mmHg,14,
042-S08-001,30,EOS,2026-07-13,PULSE,74.0,bpm,14,
042-S09-001,1,SCREENING,2026-01-16,SYSBP,129.0,mmHg,1,
042-S09-001,2,SCREENING,2026-01-16,DIABP,81.0,mmHg,1,
042-S09-001,3,SCREENING,2026-01-16,PULSE,70.0,bpm,1,
042-S09-001,4,BASELINE,2026-01-29,SYSBP,133.0,mmHg,1,
042-S09-001,5,BASELINE,2026-01-29,DIABP,75.0,mmHg,1,
042-S09-001,6,BASELINE,2026-01-29,PULSE,79.0,bpm,1,
042-S09-001,7,WEEK2,2026-02-13,SYSBP,127.0,mmHg,2,
042-S09-001,8,WEEK2,2026-02-13,DIABP,85.0,mmHg,2,
042-S09-001,9,WEEK2,2026-02-13,PULSE,68.0,bpm,2,
042-S09-001,10,WEEK4,2026-02-28,SYSBP,123.0,mmHg,3,
042-S09-001,11,WEEK4,2026-02-28,DIABP,88.0,mmHg,3,
042-S09-001,12,WEEK4,2026-02-28,PULSE,81.0,bpm,3,
042-S09-001,13,WEEK8,2026-04-02,SYSBP,115.0,mmHg,5,
042-S09-001,14,WEEK8,2026-04-02,DIABP,82.0,mmHg,5,
042-S09-001,15,WEEK8,2026-04-02,PULSE,72.0,bpm,5,
042-S09-001,16,WEEK12,2026-04-24,SYSBP,107.0,mmHg,6,
042-S09-001,17,WEEK12,2026-04-24,DIABP,81.0,mmHg,6,
042-S09-001,18,WEEK12,2026-04-24,PULSE,92.0,bpm,6,
042-S09-001,19,WEEK16,2026-05-12,SYSBP,119.0,mmHg,7,
042-S09-001,20,WEEK16,2026-05-12,DIABP,68.0,mmHg,7,
042-S09-001,21,WEEK16,2026-05-12,PULSE,80.0,bpm,7,
042-S09-001,22,WEEK20,2026-06-19,SYSBP,129.0,mmHg,9,
042-S09-001,23,WEEK20,2026-06-19,DIABP,95.0,mmHg,9,
042-S09-001,24,WEEK20,2026-06-19,PULSE,79.0,bpm,9,
042-S09-001,25,WEEK24,2026-07-26,SYSBP,123.0,mmHg,11,
042-S09-001,26,WEEK24,2026-07-26,DIABP,76.0,mmHg,11,
042-S09-001,27,WEEK24,2026-07-26,PULSE,75.0,bpm,11,
042-S09-001,28,EOS,2026-08-02,SYSBP,141.0,mmHg,12,
042-S09-001,29,EOS,2026-08-02,DIABP,91.0,mmHg,12,
042-S09-001,30,EOS,2026-08-02,PULSE,77.0,bpm,12,
042-S10-001,1,SCREENING,2026-01-04,SYSBP,137.0,mmHg,1,
042-S10-001,2,SCREENING,2026-01-04,DIABP,80.0,mmHg,1,
042-S10-001,3,SCREENING,2026-01-04,PULSE,85.0,bpm,1,
042-S10-001,4,BASELINE,2026-01-21,SYSBP,103.0,mmHg,1,
042-S10-001,5,BASELINE,2026-01-21,DIABP,78.0,mmHg,1,
042-S10-001,6,BASELINE,2026-01-21,PULSE,63.0,bpm,1,
042-S10-001,7,WEEK2,2026-02-04,SYSBP,140.0,mmHg,2,
042-S10-001,8,WEEK2,2026-02-04,DIABP,83.0,mmHg,2,
042-S10-001,9,WEEK2,2026-02-04,PULSE,71.0,bpm,2,
042-S10-001,10,WEEK4,2026-02-15,SYSBP,121.0,mmHg,2,
042-S10-001,11,WEEK4,2026-02-15,DIABP,88.0,mmHg,2,
042-S10-001,12,WEEK4,2026-02-15,PULSE,82.0,bpm,2,
042-S10-001,13,WEEK8,2026-03-16,SYSBP,122.0,mmHg,4,
042-S10-001,14,WEEK8,2026-03-16,DIABP,84.0,mmHg,4,
042-S10-001,15,WEEK8,2026-03-16,PULSE,77.0,bpm,4,
042-S10-001,16,WEEK12,2026-04-13,SYSBP,140.0,mmHg,6,
042-S10-001,17,WEEK12,2026-04-13,DIABP,88.0,mmHg,6,
042-S10-001,18,WEEK12,2026-04-13,PULSE,75.0,bpm,6,
042-S10-001,19,WEEK16,2026-05-14,SYSBP,138.0,mmHg,7,
042-S10-001,20,WEEK16,2026-05-14,DIABP,80.0,mmHg,7,
042-S10-001,21,WEEK16,2026-05-14,PULSE,73.0,bpm,7,
042-S10-001,22,WEEK20,2026-06-08,SYSBP,130.0,mmHg,9,
042-S10-001,23,WEEK20,2026-06-08,DIABP,87.0,mmHg,9,
042-S10-001,24,WEEK20,2026-06-08,PULSE,89.0,bpm,9,
042-S10-001,25,WEEK24,2026-07-18,SYSBP,114.0,mmHg,11,
042-S10-001,26,WEEK24,2026-07-18,DIABP,84.0,mmHg,11,
042-S10-001,27,WEEK24,2026-07-18,PULSE,69.0,bpm,11,
042-S10-001,28,EOS,2026-07-23,SYSBP,139.0,mmHg,11,
042-S10-001,29,EOS,2026-07-23,DIABP,81.0,mmHg,11,
042-S10-001,30,EOS,2026-07-23,PULSE,63.0,bpm,11,
042-S11-001,1,SCREENING,2026-01-06,SYSBP,129.0,mmHg,6,
042-S11-001,2,SCREENING,2026-01-06,DIABP,80.0,mmHg,6,
042-S11-001,3,SCREENING,2026-01-06,PULSE,72.0,bpm,6,
042-S11-001,4,BASELINE,2026-01-20,SYSBP,127.0,mmHg,6,
042-S11-001,5,BASELINE,2026-01-20,DIABP,79.0,mmHg,6,
042-S11-001,6,BASELINE,2026-01-20,PULSE,73.0,bpm,6,
042-S11-001,7,WEEK2,2026-02-03,SYSBP,127.0,mmHg,6,
042-S11-001,8,WEEK2,2026-02-03,DIABP,79.0,mmHg,6,
042-S11-001,9,WEEK2,2026-02-03,PULSE,72.0,bpm,6,
042-S11-001,10,WEEK4,2026-02-17,SYSBP,128.0,mmHg,6,
042-S11-001,11,WEEK4,2026-02-17,DIABP,79.0,mmHg,6,
042-S11-001,12,WEEK4,2026-02-17,PULSE,71.0,bpm,6,
042-S11-001,13,WEEK8,2026-03-17,SYSBP,128.0,mmHg,6,
042-S11-001,14,WEEK8,2026-03-17,DIABP,80.0,mmHg,6,
042-S11-001,15,WEEK8,2026-03-17,PULSE,72.0,bpm,6,
042-S11-001,16,WEEK12,2026-04-14,SYSBP,129.0,mmHg,6,
042-S11-001,17,WEEK12,2026-04-14,DIABP,80.0,mmHg,6,
042-S11-001,18,WEEK12,2026-04-14,PULSE,72.0,bpm,6,
042-S11-001,19,WEEK16,2026-05-12,SYSBP,127.0,mmHg,7,
042-S11-001,20,WEEK16,2026-05-12,DIABP,80.0,mmHg,7,
042-S11-001,21,WEEK16,2026-05-12,PULSE,73.0,bpm,7,
042-S11-001,22,WEEK20,2026-06-09,SYSBP,129.0,mmHg,9,
042-S11-001,23,WEEK20,2026-06-09,DIABP,81.0,mmHg,9,
042-S11-001,24,WEEK20,2026-06-09,PULSE,71.0,bpm,9,
042-S11-001,25,WEEK24,2026-07-07,SYSBP,129.0,mmHg,10,
042-S11-001,26,WEEK24,2026-07-07,DIABP,80.0,mmHg,10,
042-S11-001,27,WEEK24,2026-07-07,PULSE,73.0,bpm,10,
042-S11-001,28,EOS,2026-07-21,SYSBP,128.0,mmHg,11,
042-S11-001,29,EOS,2026-07-21,DIABP,79.0,mmHg,11,
042-S11-001,30,EOS,2026-07-21,PULSE,72.0,bpm,11,
042-S12-001,1,SCREENING,2026-01-10,SYSBP,133.0,mmHg,1,
042-S12-001,2,SCREENING,2026-01-10,DIABP,92.0,mmHg,1,
042-S12-001,3,SCREENING,2026-01-10,PULSE,70.0,bpm,1,
042-S12-001,4,BASELINE,2026-01-28,SYSBP,132.0,mmHg,1,
042-S12-001,5,BASELINE,2026-01-28,DIABP,75.0,mmHg,1,
042-S12-001,6,BASELINE,2026-01-28,PULSE,63.0,bpm,1,
042-S12-001,7,WEEK2,2026-02-09,SYSBP,134.0,mmHg,2,
042-S12-001,8,WEEK2,2026-02-09,DIABP,93.0,mmHg,2,
042-S12-001,9,WEEK2,2026-02-09,PULSE,63.0,bpm,2,
042-S12-001,10,WEEK4,2026-02-22,SYSBP,116.0,mmHg,3,
042-S12-001,11,WEEK4,2026-02-22,DIABP,74.0,mmHg,3,
042-S12-001,12,WEEK4,2026-02-22,PULSE,73.0,bpm,3,
042-S12-001,13,WEEK8,2026-03-24,SYSBP,114.0,mmHg,4,
042-S12-001,14,WEEK8,2026-03-24,DIABP,84.0,mmHg,4,
042-S12-001,15,WEEK8,2026-03-24,PULSE,73.0,bpm,4,
042-S12-001,16,WEEK12,2026-04-18,SYSBP,135.0,mmHg,6,
042-S12-001,17,WEEK12,2026-04-18,DIABP,81.0,mmHg,6,
042-S12-001,18,WEEK12,2026-04-18,PULSE,74.0,bpm,6,
042-S12-001,19,WEEK16,2026-05-16,SYSBP,120.0,mmHg,7,
042-S12-001,20,WEEK16,2026-05-16,DIABP,78.0,mmHg,7,
042-S12-001,21,WEEK16,2026-05-16,PULSE,70.0,bpm,7,
042-S12-001,22,WEEK20,2026-06-15,SYSBP,128.0,mmHg,9,
042-S12-001,23,WEEK20,2026-06-15,DIABP,97.0,mmHg,9,
042-S12-001,24,WEEK20,2026-06-15,PULSE,68.0,bpm,9,
042-S12-001,25,WEEK24,2026-07-13,SYSBP,148.0,mmHg,11,
042-S12-001,26,WEEK24,2026-07-13,DIABP,93.0,mmHg,11,
042-S12-001,27,WEEK24,2026-07-13,PULSE,63.0,bpm,11,
042-S12-001,28,EOS,2026-07-25,SYSBP,116.0,mmHg,11,
042-S12-001,29,EOS,2026-07-25,DIABP,68.0,mmHg,11,
042-S12-001,30,EOS,2026-07-25,PULSE,93.0,bpm,11,
042-S01-002,1,SCREENING,2025-12-30,SYSBP,125.0,mmHg,1,
042-S01-002,2,SCREENING,2025-12-30,DIABP,88.0,mmHg,1,
042-S01-002,3,SCREENING,2025-12-30,PULSE,79.0,bpm,1,
042-S01-002,4,BASELINE,2026-01-13,SYSBP,125.0,mmHg,1,
042-S01-002,5,BASELINE,2026-01-13,DIABP,79.0,mmHg,1,
042-S01-002,6,BASELINE,2026-01-13,PULSE,64.0,bpm,1,
042-S01-002,7,WEEK2,2026-01-29,SYSBP,128.0,mmHg,1,
042-S01-002,8,WEEK2,2026-01-29,DIABP,72.0,mmHg,1,
042-S01-002,9,WEEK2,2026-01-29,PULSE,90.0,bpm,1,
042-S01-002,10,WEEK4,2026-02-10,SYSBP,138.0,mmHg,2,
042-S01-002,11,WEEK4,2026-02-10,DIABP,95.0,mmHg,2,
042-S01-002,12,WEEK4,2026-02-10,PULSE,68.0,bpm,2,
042-S01-002,13,WEEK8,2026-03-07,SYSBP,124.0,mmHg,4,
042-S01-002,14,WEEK8,2026-03-07,DIABP,90.0,mmHg,4,
042-S01-002,15,WEEK8,2026-03-07,PULSE,77.0,bpm,4,
042-S01-002,16,WEEK12,2026-04-10,SYSBP,121.0,mmHg,5,
042-S01-002,17,WEEK12,2026-04-10,DIABP,69.0,mmHg,5,
042-S01-002,18,WEEK12,2026-04-10,PULSE,73.0,bpm,5,
042-S01-002,19,WEEK16,2026-05-05,SYSBP,128.0,mmHg,7,
042-S01-002,20,WEEK16,2026-05-05,DIABP,83.0,mmHg,7,
042-S01-002,21,WEEK16,2026-05-05,PULSE,69.0,bpm,7,
042-S01-002,22,WEEK20,2026-06-01,SYSBP,136.0,mmHg,8,
042-S01-002,23,WEEK20,2026-06-01,DIABP,82.0,mmHg,8,
042-S01-002,24,WEEK20,2026-06-01,PULSE,77.0,bpm,8,
042-S01-002,25,WEEK24,2026-06-29,SYSBP,150.0,mmHg,10,
042-S01-002,26,WEEK24,2026-06-29,DIABP,77.0,mmHg,10,
042-S01-002,27,WEEK24,2026-06-29,PULSE,81.0,bpm,10,
042-S01-002,28,EOS,2026-07-15,SYSBP,113.0,mmHg,11,
042-S01-002,29,EOS,2026-07-15,DIABP,75.0,mmHg,11,
042-S01-002,30,EOS,2026-07-15,PULSE,84.0,bpm,11,
042-S02-002,1,SCREENING,2026-01-11,SYSBP,136.0,mmHg,1,
042-S02-002,2,SCREENING,2026-01-11,DIABP,86.0,mmHg,1,
042-S02-002,3,SCREENING,2026-01-11,PULSE,70.0,bpm,1,
042-S02-002,4,BASELINE,2026-01-24,SYSBP,131.0,mmHg,1,
042-S02-002,5,BASELINE,2026-01-24,DIABP,73.0,mmHg,1,
042-S02-002,6,BASELINE,2026-01-24,PULSE,81.0,bpm,1,
042-S02-002,7,WEEK2,2026-02-07,SYSBP,119.0,mmHg,2,
042-S02-002,8,WEEK2,2026-02-07,DIABP,71.0,mmHg,2,
042-S02-002,9,WEEK2,2026-02-07,PULSE,66.0,bpm,2,
042-S02-002,10,WEEK4,2026-02-11,SYSBP,124.0,mmHg,2,
042-S02-002,11,WEEK4,2026-02-11,DIABP,71.0,mmHg,2,
042-S02-002,12,WEEK4,2026-02-11,PULSE,72.0,bpm,2,
042-S02-002,13,WEEK8,2026-03-22,SYSBP,134.0,mmHg,4,
042-S02-002,14,WEEK8,2026-03-22,DIABP,98.0,mmHg,4,
042-S02-002,15,WEEK8,2026-03-22,PULSE,59.0,bpm,4,
042-S02-002,16,WEEK12,2026-04-20,SYSBP,154.0,mmHg,6,
042-S02-002,17,WEEK12,2026-04-20,DIABP,90.0,mmHg,6,
042-S02-002,18,WEEK12,2026-04-20,PULSE,57.0,bpm,6,
042-S02-002,19,WEEK16,2026-05-15,SYSBP,133.0,mmHg,7,
042-S02-002,20,WEEK16,2026-05-15,DIABP,91.0,mmHg,7,
042-S02-002,21,WEEK16,2026-05-15,PULSE,77.0,bpm,7,
042-S02-002,22,WEEK20,2026-06-22,SYSBP,128.0,mmHg,9,
042-S02-002,23,WEEK20,2026-06-22,DIABP,80.0,mmHg,9,
042-S02-002,24,WEEK20,2026-06-22,PULSE,77.0,bpm,9,
042-S02-002,25,WEEK24,2026-07-10,SYSBP,121.0,mmHg,10,
042-S02-002,26,WEEK24,2026-07-10,DIABP,76.0,mmHg,10,
042-S02-002,27,WEEK24,2026-07-10,PULSE,61.0,bpm,10,
042-S02-002,28,EOS,2026-07-26,SYSBP,125.0,mmHg,11,
042-S02-002,29,EOS,2026-07-26,DIABP,58.0,mmHg,11,
042-S02-002,30,EOS,2026-07-26,PULSE,81.0,bpm,11,
042-S03-002,1,SCREENING,02-JAN-2026,SYSBP,119.0,mmHg,1,
042-S03-002,2,SCREENING,02-JAN-2026,DIABP,100.0,mmHg,1,
042-S03-002,3,SCREENING,02-JAN-2026,PULSE,77.0,bpm,1,
042-S03-002,4,BASELINE,16-JAN-2026,SYSBP,129.0,mmHg,1,
042-S03-002,5,BASELINE,16-JAN-2026,DIABP,89.0,mmHg,1,
042-S03-002,6,BASELINE,16-JAN-2026,PULSE,71.0,bpm,1,
042-S03-002,7,WEEK2,31-JAN-2026,SYSBP,129.0,mmHg,2,
042-S03-002,8,WEEK2,31-JAN-2026,DIABP,82.0,mmHg,2,
042-S03-002,9,WEEK2,31-JAN-2026,PULSE,76.0,bpm,2,
042-S03-002,10,WEEK4,10-FEB-2026,SYSBP,131.0,mmHg,2,
042-S03-002,11,WEEK4,10-FEB-2026,DIABP,86.0,mmHg,2,
042-S03-002,12,WEEK4,10-FEB-2026,PULSE,62.0,bpm,2,
042-S03-002,13,WEEK8,11-MAR-2026,SYSBP,136.0,mmHg,4,
042-S03-002,14,WEEK8,11-MAR-2026,DIABP,73.0,mmHg,4,
042-S03-002,15,WEEK8,11-MAR-2026,PULSE,89.0,bpm,4,
042-S03-002,16,WEEK12,07-APR-2026,SYSBP,100.0,mmHg,5,
042-S03-002,17,WEEK12,07-APR-2026,DIABP,92.0,mmHg,5,
042-S03-002,18,WEEK12,07-APR-2026,PULSE,60.0,bpm,5,
042-S03-002,19,WEEK16,07-MAY-2026,SYSBP,135.0,mmHg,7,
042-S03-002,20,WEEK16,07-MAY-2026,DIABP,89.0,mmHg,7,
042-S03-002,21,WEEK16,07-MAY-2026,PULSE,52.0,bpm,7,
042-S03-002,22,WEEK20,02-JUN-2026,SYSBP,127.0,mmHg,8,
042-S03-002,23,WEEK20,02-JUN-2026,DIABP,78.0,mmHg,8,
042-S03-002,24,WEEK20,02-JUN-2026,PULSE,78.0,bpm,8,
042-S03-002,25,WEEK24,01-JUL-2026,SYSBP,129.0,mmHg,10,
042-S03-002,26,WEEK24,01-JUL-2026,DIABP,72.0,mmHg,10,
042-S03-002,27,WEEK24,01-JUL-2026,PULSE,70.0,bpm,10,
042-S03-002,28,EOS,14-JUL-2026,SYSBP,134.0,mmHg,11,
042-S03-002,29,EOS,14-JUL-2026,DIABP,81.0,mmHg,11,
042-S03-002,30,EOS,14-JUL-2026,PULSE,81.0,bpm,11,
042-S04-002,1,SCREENING,2026-01-07,SYSBP,121.0,mmHg,1,
042-S04-002,2,SCREENING,2026-01-07,DIABP,70.0,mmHg,1,
042-S04-002,3,SCREENING,2026-01-07,PULSE,79.0,bpm,1,
042-S04-002,4,BASELINE,2026-01-23,SYSBP,130.0,mmHg,1,
042-S04-002,5,BASELINE,2026-01-23,DIABP,86.0,mmHg,1,
042-S04-002,6,BASELINE,2026-01-23,PULSE,62.0,bpm,1,
042-S04-002,7,WEEK2,2026-02-08,SYSBP,134.0,mmHg,2,
042-S04-002,8,WEEK2,2026-02-08,DIABP,65.0,mmHg,2,
042-S04-002,9,WEEK2,2026-02-08,PULSE,61.0,bpm,2,
042-S04-002,10,WEEK4,2026-02-19,SYSBP,139.0,mmHg,3,
042-S04-002,11,WEEK4,2026-02-19,DIABP,91.0,mmHg,3,
042-S04-002,12,WEEK4,2026-02-19,PULSE,65.0,bpm,3,
042-S04-002,13,WEEK8,2026-03-22,SYSBP,131.0,mmHg,4,
042-S04-002,14,WEEK8,2026-03-22,DIABP,98.0,mmHg,4,
042-S04-002,15,WEEK8,2026-03-22,PULSE,56.0,bpm,4,
042-S04-002,16,WEEK12,2026-04-17,SYSBP,131.0,mmHg,6,
042-S04-002,17,WEEK12,2026-04-17,DIABP,76.0,mmHg,6,
042-S04-002,18,WEEK12,2026-04-17,PULSE,75.0,bpm,6,
042-S04-002,19,WEEK16,2026-05-17,SYSBP,137.0,mmHg,7,
042-S04-002,20,WEEK16,2026-05-17,DIABP,93.0,mmHg,7,
042-S04-002,21,WEEK16,2026-05-17,PULSE,73.0,bpm,7,
042-S04-002,22,WEEK20,2026-06-13,SYSBP,125.0,mmHg,9,
042-S04-002,23,WEEK20,2026-06-13,DIABP,72.0,mmHg,9,
042-S04-002,24,WEEK20,2026-06-13,PULSE,78.0,bpm,9,
042-S04-002,25,WEEK24,2026-07-05,SYSBP,136.0,mmHg,10,
042-S04-002,26,WEEK24,2026-07-05,DIABP,76.0,mmHg,10,
042-S04-002,27,WEEK24,2026-07-05,PULSE,74.0,bpm,10,
042-S04-002,28,EOS,2026-07-30,SYSBP,125.0,mmHg,12,
042-S04-002,29,EOS,2026-07-30,DIABP,71.0,mmHg,12,
042-S04-002,30,EOS,2026-07-30,PULSE,64.0,bpm,12,
042-S05-002,1,SCREENING,2026-01-10,SYSBP,104.0,mmHg,1,
042-S05-002,2,SCREENING,2026-01-10,DIABP,87.0,mmHg,1,
042-S05-002,3,SCREENING,2026-01-10,PULSE,72.0,bpm,1,
042-S05-002,4,BASELINE,2026-01-24,SYSBP,136.0,mmHg,1,
042-S05-002,5,BASELINE,2026-01-24,DIABP,83.0,mmHg,1,
042-S05-002,6,BASELINE,2026-01-24,PULSE,69.0,bpm,1,
042-S05-002,7,WEEK2,2026-02-08,SYSBP,118.0,mmHg,2,
042-S05-002,8,WEEK2,2026-02-08,DIABP,86.0,mmHg,2,
042-S05-002,9,WEEK2,2026-02-08,PULSE,76.0,bpm,2,
042-S05-002,10,WEEK4,2026-02-21,SYSBP,133.0,mmHg,3,
042-S05-002,11,WEEK4,2026-02-21,DIABP,87.0,mmHg,3,
042-S05-002,12,WEEK4,2026-02-21,PULSE,64.0,bpm,3,
042-S05-002,13,WEEK8,2026-03-24,SYSBP,138.0,mmHg,4,
042-S05-002,14,WEEK8,2026-03-24,DIABP,72.0,mmHg,4,
042-S05-002,15,WEEK8,2026-03-24,PULSE,93.0,bpm,4,
042-S05-002,16,WEEK12,2026-04-21,SYSBP,111.0,mmHg,6,
042-S05-002,17,WEEK12,2026-04-21,DIABP,86.0,mmHg,6,
042-S05-002,18,WEEK12,2026-04-21,PULSE,68.0,bpm,6,
042-S05-002,19,WEEK16,2026-05-22,SYSBP,135.0,mmHg,8,
042-S05-002,20,WEEK16,2026-05-22,DIABP,64.0,mmHg,8,
042-S05-002,21,WEEK16,2026-05-22,PULSE,64.0,bpm,8,
042-S05-002,22,WEEK20,2026-06-16,SYSBP,137.0,mmHg,9,
042-S05-002,23,WEEK20,2026-06-16,DIABP,91.0,mmHg,9,
042-S05-002,24,WEEK20,2026-06-16,PULSE,71.0,bpm,9,
042-S05-002,25,WEEK24,2026-07-14,SYSBP,119.0,mmHg,11,
042-S05-002,26,WEEK24,2026-07-14,DIABP,74.0,mmHg,11,
042-S05-002,27,WEEK24,2026-07-14,PULSE,73.0,bpm,11,
042-S05-002,28,EOS,2026-07-24,SYSBP,117.0,mmHg,11,
042-S05-002,29,EOS,2026-07-24,DIABP,86.0,mmHg,11,
042-S05-002,30,EOS,2026-07-24,PULSE,70.0,bpm,11,
042-S06-002,1,SCREENING,2026-01-11,SYSBP,124.0,mmHg,1,
042-S06-002,2,SCREENING,2026-01-11,DIABP,94.0,mmHg,1,
042-S06-002,3,SCREENING,2026-01-11,PULSE,88.0,bpm,1,
042-S06-002,4,BASELINE,2026-01-21,SYSBP,134.0,mmHg,1,
042-S06-002,5,BASELINE,2026-01-21,DIABP,71.0,mmHg,1,
042-S06-002,6,BASELINE,2026-01-21,PULSE,51.0,bpm,1,
042-S06-002,7,WEEK2,2026-02-15,SYSBP,131.0,mmHg,2,
042-S06-002,8,WEEK2,2026-02-15,DIABP,89.0,mmHg,2,
042-S06-002,9,WEEK2,2026-02-15,PULSE,76.0,bpm,2,
042-S06-002,10,WEEK4,2026-02-19,SYSBP,131.0,mmHg,3,
042-S06-002,11,WEEK4,2026-02-19,DIABP,70.0,mmHg,3,
042-S06-002,12,WEEK4,2026-02-19,PULSE,63.0,bpm,3,
042-S06-002,13,WEEK8,2026-03-21,SYSBP,124.0,mmHg,4,
042-S06-002,14,WEEK8,2026-03-21,DIABP,87.0,mmHg,4,
042-S06-002,15,WEEK8,2026-03-21,PULSE,84.0,bpm,4,
042-S06-002,16,WEEK12,2026-04-18,SYSBP,120.0,mmHg,6,
042-S06-002,17,WEEK12,2026-04-18,DIABP,87.0,mmHg,6,
042-S06-002,18,WEEK12,2026-04-18,PULSE,68.0,bpm,6,
042-S06-002,19,WEEK16,2026-05-15,SYSBP,131.0,mmHg,7,
042-S06-002,20,WEEK16,2026-05-15,DIABP,93.0,mmHg,7,
042-S06-002,21,WEEK16,2026-05-15,PULSE,75.0,bpm,7,
042-S06-002,22,WEEK20,2026-06-13,SYSBP,121.0,mmHg,9,
042-S06-002,23,WEEK20,2026-06-13,DIABP,73.0,mmHg,9,
042-S06-002,24,WEEK20,2026-06-13,PULSE,85.0,bpm,9,
042-S06-002,25,WEEK24,2026-06-30,SYSBP,123.0,mmHg,10,
042-S06-002,26,WEEK24,2026-06-30,DIABP,71.0,mmHg,10,
042-S06-002,27,WEEK24,2026-06-30,PULSE,67.0,bpm,10,
042-S06-002,28,EOS,2026-07-25,SYSBP,135.0,mmHg,11,
042-S06-002,29,EOS,2026-07-25,DIABP,77.0,mmHg,11,
042-S06-002,30,EOS,2026-07-25,PULSE,72.0,bpm,11,
042-S07-002,1,SCREENING,2026-01-10,SYSBP,123.0,mmHg,1,
042-S07-002,2,SCREENING,2026-01-10,DIABP,74.0,mmHg,1,
042-S07-002,3,SCREENING,2026-01-10,PULSE,63.0,bpm,1,
042-S07-002,4,BASELINE,2026-01-22,SYSBP,147.0,mmHg,1,
042-S07-002,5,BASELINE,2026-01-22,DIABP,82.0,mmHg,1,
042-S07-002,6,BASELINE,2026-01-22,PULSE,73.0,bpm,1,
042-S07-002,7,WEEK2,2026-02-07,SYSBP,131.0,mmHg,2,
042-S07-002,8,WEEK2,2026-02-07,DIABP,76.0,mmHg,2,
042-S07-002,9,WEEK2,2026-02-07,PULSE,68.0,bpm,2,
042-S07-002,10,WEEK4,2026-02-19,SYSBP,125.0,mmHg,3,
042-S07-002,11,WEEK4,2026-02-19,DIABP,76.0,mmHg,3,
042-S07-002,12,WEEK4,2026-02-19,PULSE,77.0,bpm,3,
042-S07-002,13,WEEK8,2026-03-20,SYSBP,126.0,mmHg,4,
042-S07-002,14,WEEK8,2026-03-20,DIABP,95.0,mmHg,4,
042-S07-002,15,WEEK8,2026-03-20,PULSE,62.0,bpm,4,
042-S07-002,16,WEEK12,2026-04-17,SYSBP,131.0,mmHg,6,
042-S07-002,17,WEEK12,2026-04-17,DIABP,84.0,mmHg,6,
042-S07-002,18,WEEK12,2026-04-17,PULSE,83.0,bpm,6,
042-S07-002,19,WEEK16,2026-05-13,SYSBP,136.0,mmHg,7,
042-S07-002,20,WEEK16,2026-05-13,DIABP,89.0,mmHg,7,
042-S07-002,21,WEEK16,2026-05-13,PULSE,79.0,bpm,7,
042-S07-002,22,WEEK20,2026-06-13,SYSBP,122.0,mmHg,9,
042-S07-002,23,WEEK20,2026-06-13,DIABP,81.0,mmHg,9,
042-S07-002,24,WEEK20,2026-06-13,PULSE,68.0,bpm,9,
042-S07-002,25,WEEK24,2026-07-11,SYSBP,124.0,mmHg,11,
042-S07-002,26,WEEK24,2026-07-11,DIABP,82.0,mmHg,11,
042-S07-002,27,WEEK24,2026-07-11,PULSE,80.0,bpm,11,
042-S07-002,28,EOS,2026-07-25,SYSBP,125.0,mmHg,11,
042-S07-002,29,EOS,2026-07-25,DIABP,71.0,mmHg,11,
042-S07-002,30,EOS,2026-07-25,PULSE,82.0,bpm,11,
042-S08-002,1,SCREENING,2026-01-11,SYSBP,120.0,mmHg,4,
042-S08-002,2,SCREENING,2026-01-11,DIABP,92.0,mmHg,4,
042-S08-002,3,SCREENING,2026-01-11,PULSE,70.0,bpm,4,
042-S08-002,4,BASELINE,2026-01-21,SYSBP,128.0,mmHg,4,
042-S08-002,5,BASELINE,2026-01-21,DIABP,93.0,mmHg,4,
042-S08-002,6,BASELINE,2026-01-21,PULSE,88.0,bpm,4,
042-S08-002,7,WEEK2,2026-02-07,SYSBP,146.0,mmHg,5,
042-S08-002,8,WEEK2,2026-02-07,DIABP,81.0,mmHg,5,
042-S08-002,9,WEEK2,2026-02-07,PULSE,82.0,bpm,5,
042-S08-002,10,WEEK4,2026-02-11,SYSBP,131.0,mmHg,5,
042-S08-002,11,WEEK4,2026-02-11,DIABP,74.0,mmHg,5,
042-S08-002,12,WEEK4,2026-02-11,PULSE,53.0,bpm,5,
042-S08-002,13,WEEK8,2026-03-22,SYSBP,122.0,mmHg,7,
042-S08-002,14,WEEK8,2026-03-22,DIABP,101.0,mmHg,7,
042-S08-002,15,WEEK8,2026-03-22,PULSE,79.0,bpm,7,
042-S08-002,16,WEEK12,2026-04-19,SYSBP,109.0,mmHg,9,
042-S08-002,17,WEEK12,2026-04-19,DIABP,58.0,mmHg,9,
042-S08-002,18,WEEK12,2026-04-19,PULSE,69.0,bpm,9,
042-S08-002,19,WEEK16,2026-05-15,SYSBP,134.0,mmHg,10,
042-S08-002,20,WEEK16,2026-05-15,DIABP,94.0,mmHg,10,
042-S08-002,21,WEEK16,2026-05-15,PULSE,77.0,bpm,10,
042-S08-002,22,WEEK20,2026-06-11,SYSBP,123.0,mmHg,12,
042-S08-002,23,WEEK20,2026-06-11,DIABP,86.0,mmHg,12,
042-S08-002,24,WEEK20,2026-06-11,PULSE,87.0,bpm,12,
042-S08-002,25,WEEK24,2026-07-12,SYSBP,139.0,mmHg,14,
042-S08-002,26,WEEK24,2026-07-12,DIABP,102.0,mmHg,14,
042-S08-002,27,WEEK24,2026-07-12,PULSE,69.0,bpm,14,
042-S08-002,28,EOS,2026-07-15,SYSBP,128.0,mmHg,14,
042-S08-002,29,EOS,2026-07-15,DIABP,71.0,mmHg,14,
042-S08-002,30,EOS,2026-07-15,PULSE,64.0,bpm,14,
042-S09-002,1,SCREENING,2026-01-04,SYSBP,104.0,mmHg,1,
042-S09-002,2,SCREENING,2026-01-04,DIABP,74.0,mmHg,1,
042-S09-002,3,SCREENING,2026-01-04,PULSE,70.0,bpm,1,
042-S09-002,4,BASELINE,2026-01-19,SYSBP,120.0,mmHg,1,
042-S09-002,5,BASELINE,2026-01-19,DIABP,83.0,mmHg,1,
042-S09-002,6,BASELINE,2026-01-19,PULSE,78.0,bpm,1,
042-S09-002,7,WEEK2,2026-01-31,SYSBP,128.0,mmHg,2,
042-S09-002,8,WEEK2,2026-01-31,DIABP,95.0,mmHg,2,
042-S09-002,9,WEEK2,2026-01-31,PULSE,72.0,bpm,2,
042-S09-002,10,WEEK4,2026-02-19,SYSBP,134.0,mmHg,3,
042-S09-002,11,WEEK4,2026-02-19,DIABP,77.0,mmHg,3,
042-S09-002,12,WEEK4,2026-02-19,PULSE,69.0,bpm,3,
042-S09-002,13,WEEK8,2026-03-23,SYSBP,120.0,mmHg,4,
042-S09-002,14,WEEK8,2026-03-23,DIABP,71.0,mmHg,4,
042-S09-002,15,WEEK8,2026-03-23,PULSE,59.0,bpm,4,
042-S09-002,16,WEEK12,2026-04-11,SYSBP,132.0,mmHg,5,
042-S09-002,17,WEEK12,2026-04-11,DIABP,68.0,mmHg,5,
042-S09-002,18,WEEK12,2026-04-11,PULSE,75.0,bpm,5,
042-S09-002,19,WEEK16,2026-05-08,SYSBP,125.0,mmHg,7,
042-S09-002,20,WEEK16,2026-05-08,DIABP,94.0,mmHg,7,
042-S09-002,21,WEEK16,2026-05-08,PULSE,75.0,bpm,7,
042-S09-002,22,WEEK20,2026-06-04,SYSBP,127.0,mmHg,8,
042-S09-002,23,WEEK20,2026-06-04,DIABP,74.0,mmHg,8,
042-S09-002,24,WEEK20,2026-06-04,PULSE,78.0,bpm,8,
042-S09-002,25,WEEK24,2026-07-04,SYSBP,128.0,mmHg,10,
042-S09-002,26,WEEK24,2026-07-04,DIABP,89.0,mmHg,10,
042-S09-002,27,WEEK24,2026-07-04,PULSE,96.0,bpm,10,
042-S09-002,28,EOS,2026-07-17,SYSBP,128.0,mmHg,11,
042-S09-002,29,EOS,2026-07-17,DIABP,69.0,mmHg,11,
042-S09-002,30,EOS,2026-07-17,PULSE,79.0,bpm,11,
042-S10-002,1,SCREENING,2026-01-07,SYSBP,128.0,mmHg,1,
042-S10-002,2,SCREENING,2026-01-07,DIABP,78.0,mmHg,1,
042-S10-002,3,SCREENING,2026-01-07,PULSE,62.0,bpm,1,
042-S10-002,4,BASELINE,2026-01-19,SYSBP,122.0,mmHg,1,
042-S10-002,5,BASELINE,2026-01-19,DIABP,84.0,mmHg,1,
042-S10-002,6,BASELINE,2026-01-19,PULSE,78.0,bpm,1,
042-S10-002,7,WEEK2,2026-02-02,SYSBP,122.0,mmHg,2,
042-S10-002,8,WEEK2,2026-02-02,DIABP,66.0,mmHg,2,
042-S10-002,9,WEEK2,2026-02-02,PULSE,76.0,bpm,2,
042-S10-002,10,WEEK4,2026-02-17,SYSBP,117.0,mmHg,3,
042-S10-002,11,WEEK4,2026-02-17,DIABP,78.0,mmHg,3,
042-S10-002,12,WEEK4,2026-02-17,PULSE,65.0,bpm,3,
042-S10-002,13,WEEK8,2026-03-16,SYSBP,140.0,mmHg,4,
042-S10-002,14,WEEK8,2026-03-16,DIABP,84.0,mmHg,4,
042-S10-002,15,WEEK8,2026-03-16,PULSE,58.0,bpm,4,
042-S10-002,16,WEEK12,2026-04-13,SYSBP,116.0,mmHg,6,
042-S10-002,17,WEEK12,2026-04-13,DIABP,74.0,mmHg,6,
042-S10-002,18,WEEK12,2026-04-13,PULSE,69.0,bpm,6,
042-S10-002,19,WEEK16,2026-05-09,SYSBP,126.0,mmHg,7,
042-S10-002,20,WEEK16,2026-05-09,DIABP,68.0,mmHg,7,
042-S10-002,21,WEEK16,2026-05-09,PULSE,66.0,bpm,7,
042-S10-002,22,WEEK20,2026-06-10,SYSBP,145.0,mmHg,9,
042-S10-002,23,WEEK20,2026-06-10,DIABP,82.0,mmHg,9,
042-S10-002,24,WEEK20,2026-06-10,PULSE,69.0,bpm,9,
042-S10-002,25,WEEK24,2026-07-08,SYSBP,135.0,mmHg,10,
042-S10-002,26,WEEK24,2026-07-08,DIABP,84.0,mmHg,10,
042-S10-002,27,WEEK24,2026-07-08,PULSE,62.0,bpm,10,
042-S10-002,28,EOS,2026-07-22,SYSBP,128.0,mmHg,11,
042-S10-002,29,EOS,2026-07-22,DIABP,62.0,mmHg,11,
042-S10-002,30,EOS,2026-07-22,PULSE,83.0,bpm,11,
042-S11-002,1,SCREENING,2026-01-06,SYSBP,128.0,mmHg,6,
042-S11-002,2,SCREENING,2026-01-06,DIABP,79.0,mmHg,6,
042-S11-002,3,SCREENING,2026-01-06,PULSE,72.0,bpm,6,
042-S11-002,4,BASELINE,2026-01-20,SYSBP,128.0,mmHg,6,
042-S11-002,5,BASELINE,2026-01-20,DIABP,79.0,mmHg,6,
042-S11-002,6,BASELINE,2026-01-20,PULSE,73.0,bpm,6,
042-S11-002,7,WEEK2,2026-02-03,SYSBP,129.0,mmHg,6,
042-S11-002,8,WEEK2,2026-02-03,DIABP,80.0,mmHg,6,
042-S11-002,9,WEEK2,2026-02-03,PULSE,72.0,bpm,6,
042-S11-002,10,WEEK4,2026-02-17,SYSBP,128.0,mmHg,6,
042-S11-002,11,WEEK4,2026-02-17,DIABP,80.0,mmHg,6,
042-S11-002,12,WEEK4,2026-02-17,PULSE,73.0,bpm,6,
042-S11-002,13,WEEK8,2026-03-17,SYSBP,127.0,mmHg,6,
042-S11-002,14,WEEK8,2026-03-17,DIABP,81.0,mmHg,6,
042-S11-002,15,WEEK8,2026-03-17,PULSE,72.0,bpm,6,
042-S11-002,16,WEEK12,2026-04-14,SYSBP,127.0,mmHg,6,
042-S11-002,17,WEEK12,2026-04-14,DIABP,81.0,mmHg,6,
042-S11-002,18,WEEK12,2026-04-14,PULSE,73.0,bpm,6,
042-S11-002,19,WEEK16,2026-05-12,SYSBP,127.0,mmHg,7,
042-S11-002,20,WEEK16,2026-05-12,DIABP,79.0,mmHg,7,
042-S11-002,21,WEEK16,2026-05-12,PULSE,72.0,bpm,7,
042-S11-002,22,WEEK20,2026-06-09,SYSBP,128.0,mmHg,9,
042-S11-002,23,WEEK20,2026-06-09,DIABP,80.0,mmHg,9,
042-S11-002,24,WEEK20,2026-06-09,PULSE,71.0,bpm,9,
042-S11-002,25,WEEK24,2026-07-07,SYSBP,128.0,mmHg,10,
042-S11-002,26,WEEK24,2026-07-07,DIABP,80.0,mmHg,10,
042-S11-002,27,WEEK24,2026-07-07,PULSE,72.0,bpm,10,
042-S11-002,28,EOS,2026-07-21,SYSBP,128.0,mmHg,11,
042-S11-002,29,EOS,2026-07-21,DIABP,80.0,mmHg,11,
042-S11-002,30,EOS,2026-07-21,PULSE,72.0,bpm,11,
042-S12-002,1,SCREENING,2026-01-05,SYSBP,143.0,mmHg,1,
042-S12-002,2,SCREENING,2026-01-05,DIABP,68.0,mmHg,1,
042-S12-002,3,SCREENING,2026-01-05,PULSE,75.0,bpm,1,
042-S12-002,4,BASELINE,2026-01-21,SYSBP,126.0,mmHg,1,
042-S12-002,5,BASELINE,2026-01-21,DIABP,69.0,mmHg,1,
042-S12-002,6,BASELINE,2026-01-21,PULSE,82.0,bpm,1,
042-S12-002,7,WEEK2,2026-02-04,SYSBP,123.0,mmHg,2,
042-S12-002,8,WEEK2,2026-02-04,DIABP,75.0,mmHg,2,
042-S12-002,9,WEEK2,2026-02-04,PULSE,55.0,bpm,2,
042-S12-002,10,WEEK4,2026-02-20,SYSBP,125.0,mmHg,3,
042-S12-002,11,WEEK4,2026-02-20,DIABP,79.0,mmHg,3,
042-S12-002,12,WEEK4,2026-02-20,PULSE,70.0,bpm,3,
042-S12-002,13,WEEK8,2026-03-16,SYSBP,110.0,mmHg,4,
042-S12-002,14,WEEK8,2026-03-16,DIABP,70.0,mmHg,4,
042-S12-002,15,WEEK8,2026-03-16,PULSE,78.0,bpm,4,
042-S12-002,16,WEEK12,2026-04-15,SYSBP,139.0,mmHg,6,
042-S12-002,17,WEEK12,2026-04-15,DIABP,79.0,mmHg,6,
042-S12-002,18,WEEK12,2026-04-15,PULSE,84.0,bpm,6,
042-S12-002,19,WEEK16,2026-05-15,SYSBP,117.0,mmHg,7,
042-S12-002,20,WEEK16,2026-05-15,DIABP,71.0,mmHg,7,
042-S12-002,21,WEEK16,2026-05-15,PULSE,73.0,bpm,7,
042-S12-002,22,WEEK20,2026-06-08,SYSBP,124.0,mmHg,9,
042-S12-002,23,WEEK20,2026-06-08,DIABP,91.0,mmHg,9,
042-S12-002,24,WEEK20,2026-06-08,PULSE,72.0,bpm,9,
042-S12-002,25,WEEK24,2026-07-08,SYSBP,120.0,mmHg,10,
042-S12-002,26,WEEK24,2026-07-08,DIABP,78.0,mmHg,10,
042-S12-002,27,WEEK24,2026-07-08,PULSE,74.0,bpm,10,
042-S12-002,28,EOS,2026-07-20,SYSBP,116.0,mmHg,11,
042-S12-002,29,EOS,2026-07-20,DIABP,68.0,mmHg,11,
042-S12-002,30,EOS,2026-07-20,PULSE,64.0,bpm,11,
042-S01-003,1,SCREENING,2026-01-08,SYSBP,125.0,mmHg,1,
042-S01-003,2,SCREENING,2026-01-08,DIABP,81.0,mmHg,1,
042-S01-003,3,SCREENING,2026-01-08,PULSE,59.0,bpm,1,
042-S01-003,4,BASELINE,2026-01-22,SYSBP,143.0,mmHg,1,
042-S01-003,5,BASELINE,2026-01-22,DIABP,89.0,mmHg,1,
042-S01-003,6,BASELINE,2026-01-22,PULSE,79.0,bpm,1,
042-S01-003,7,WEEK2,2026-02-07,SYSBP,123.0,mmHg,2,
042-S01-003,8,WEEK2,2026-02-07,DIABP,83.0,mmHg,2,
042-S01-003,9,WEEK2,2026-02-07,PULSE,62.0,bpm,2,
042-S01-003,10,WEEK4,2026-02-20,SYSBP,123.0,mmHg,3,
042-S01-003,11,WEEK4,2026-02-20,DIABP,74.0,mmHg,3,
042-S01-003,12,WEEK4,2026-02-20,PULSE,59.0,bpm,3,
042-S01-003,13,WEEK8,2026-03-20,SYSBP,111.0,mmHg,4,
042-S01-003,14,WEEK8,2026-03-20,DIABP,82.0,mmHg,4,
042-S01-003,15,WEEK8,2026-03-20,PULSE,70.0,bpm,4,
042-S01-003,16,WEEK12,2026-04-18,SYSBP,119.0,mmHg,6,
042-S01-003,17,WEEK12,2026-04-18,DIABP,94.0,mmHg,6,
042-S01-003,18,WEEK12,2026-04-18,PULSE,59.0,bpm,6,
042-S01-003,19,WEEK16,2026-05-15,SYSBP,118.0,mmHg,7,
042-S01-003,20,WEEK16,2026-05-15,DIABP,87.0,mmHg,7,
042-S01-003,21,WEEK16,2026-05-15,PULSE,67.0,bpm,7,
042-S01-003,22,WEEK20,2026-06-12,SYSBP,133.0,mmHg,9,
042-S01-003,23,WEEK20,2026-06-12,DIABP,98.0,mmHg,9,
042-S01-003,24,WEEK20,2026-06-12,PULSE,67.0,bpm,9,
042-S01-003,25,WEEK24,2026-07-09,SYSBP,134.0,mmHg,10,
042-S01-003,26,WEEK24,2026-07-09,DIABP,85.0,mmHg,10,
042-S01-003,27,WEEK24,2026-07-09,PULSE,81.0,bpm,10,
042-S01-003,28,EOS,2026-07-25,SYSBP,130.0,mmHg,11,
042-S01-003,29,EOS,2026-07-25,DIABP,83.0,mmHg,11,
042-S01-003,30,EOS,2026-07-25,PULSE,86.0,bpm,11,
042-S02-003,1,SCREENING,2025-12-28,SYSBP,130.0,mmHg,1,
042-S02-003,2,SCREENING,2025-12-28,DIABP,73.0,mmHg,1,
042-S02-003,3,SCREENING,2025-12-28,PULSE,80.0,bpm,1,
042-S02-003,4,BASELINE,2026-01-11,SYSBP,117.0,mmHg,1,
042-S02-003,5,BASELINE,2026-01-11,DIABP,75.0,mmHg,1,
042-S02-003,6,BASELINE,2026-01-11,PULSE,73.0,bpm,1,
042-S02-003,7,WEEK2,2026-01-25,SYSBP,140.0,mmHg,1,
042-S02-003,8,WEEK2,2026-01-25,DIABP,72.0,mmHg,1,
042-S02-003,9,WEEK2,2026-01-25,PULSE,67.0,bpm,1,
042-S02-003,10,WEEK4,2026-02-09,SYSBP,127.0,mmHg,2,
042-S02-003,11,WEEK4,2026-02-09,DIABP,68.0,mmHg,2,
042-S02-003,12,WEEK4,2026-02-09,PULSE,77.0,bpm,2,
042-S02-003,13,WEEK8,2026-03-09,SYSBP,127.0,mmHg,4,
042-S02-003,14,WEEK8,2026-03-09,DIABP,91.0,mmHg,4,
042-S02-003,15,WEEK8,2026-03-09,PULSE,65.0,bpm,4,
042-S02-003,16,WEEK12,2026-04-08,SYSBP,119.0,mmHg,5,
042-S02-003,17,WEEK12,2026-04-08,DIABP,75.0,mmHg,5,
042-S02-003,18,WEEK12,2026-04-08,PULSE,69.0,bpm,5,
042-S02-003,19,WEEK16,2026-05-07,SYSBP,126.0,mmHg,7,
042-S02-003,20,WEEK16,2026-05-07,DIABP,78.0,mmHg,7,
042-S02-003,21,WEEK16,2026-05-07,PULSE,56.0,bpm,7,
042-S02-003,22,WEEK20,2026-06-01,SYSBP,140.0,mmHg,8,
042-S02-003,23,WEEK20,2026-06-01,DIABP,75.0,mmHg,8,
042-S02-003,24,WEEK20,2026-06-01,PULSE,78.0,bpm,8,
042-S02-003,25,WEEK24,2026-07-01,SYSBP,131.0,mmHg,10,
042-S02-003,26,WEEK24,2026-07-01,DIABP,89.0,mmHg,10,
042-S02-003,27,WEEK24,2026-07-01,PULSE,69.0,bpm,10,
042-S02-003,28,EOS,2026-07-16,SYSBP,124.0,mmHg,11,
042-S02-003,29,EOS,2026-07-16,DIABP,74.0,mmHg,11,
042-S02-003,30,EOS,2026-07-16,PULSE,66.0,bpm,11,
042-S03-003,1,SCREENING,19-JAN-2026,SYSBP,131.0,mmHg,1,
042-S03-003,2,SCREENING,19-JAN-2026,DIABP,68.0,mmHg,1,
042-S03-003,3,SCREENING,19-JAN-2026,PULSE,49.0,bpm,1,
042-S03-003,4,BASELINE,02-FEB-2026,SYSBP,125.0,mmHg,2,
042-S03-003,5,BASELINE,02-FEB-2026,DIABP,93.0,mmHg,2,
042-S03-003,6,BASELINE,02-FEB-2026,PULSE,78.0,bpm,2,
042-S03-003,7,WEEK2,16-FEB-2026,SYSBP,136.0,mmHg,2,
042-S03-003,8,WEEK2,16-FEB-2026,DIABP,87.0,mmHg,2,
042-S03-003,9,WEEK2,16-FEB-2026,PULSE,74.0,bpm,2,
042-S03-003,10,WEEK4,28-FEB-2026,SYSBP,124.0,mmHg,3,
042-S03-003,11,WEEK4,28-FEB-2026,DIABP,86.0,mmHg,3,
042-S03-003,12,WEEK4,28-FEB-2026,PULSE,79.0,bpm,3,
042-S03-003,13,WEEK8,29-MAR-2026,SYSBP,125.0,mmHg,5,
042-S03-003,14,WEEK8,29-MAR-2026,DIABP,94.0,mmHg,5,
042-S03-003,15,WEEK8,29-MAR-2026,PULSE,75.0,bpm,5,
042-S03-003,16,WEEK12,25-APR-2026,SYSBP,137.0,mmHg,6,
042-S03-003,17,WEEK12,25-APR-2026,DIABP,105.0,mmHg,6,
042-S03-003,18,WEEK12,25-APR-2026,PULSE,84.0,bpm,6,
042-S03-003,19,WEEK16,26-MAY-2026,SYSBP,130.0,mmHg,8,
042-S03-003,20,WEEK16,26-MAY-2026,DIABP,87.0,mmHg,8,
042-S03-003,21,WEEK16,26-MAY-2026,PULSE,58.0,bpm,8,
042-S03-003,22,WEEK20,22-JUN-2026,SYSBP,129.0,mmHg,9,
042-S03-003,23,WEEK20,22-JUN-2026,DIABP,72.0,mmHg,9,
042-S03-003,24,WEEK20,22-JUN-2026,PULSE,84.0,bpm,9,
042-S03-003,25,WEEK24,18-JUL-2026,SYSBP,138.0,mmHg,11,
042-S03-003,26,WEEK24,18-JUL-2026,DIABP,90.0,mmHg,11,
042-S03-003,27,WEEK24,18-JUL-2026,PULSE,77.0,bpm,11,
042-S03-003,28,EOS,03-AUG-2026,SYSBP,140.0,mmHg,12,
042-S03-003,29,EOS,03-AUG-2026,DIABP,80.0,mmHg,12,
042-S03-003,30,EOS,03-AUG-2026,PULSE,76.0,bpm,12,
042-S04-003,1,SCREENING,2026-01-04,SYSBP,139.0,mmHg,1,
042-S04-003,2,SCREENING,2026-01-04,DIABP,76.0,mmHg,1,
042-S04-003,3,SCREENING,2026-01-04,PULSE,76.0,bpm,1,
042-S04-003,4,BASELINE,2026-01-15,SYSBP,117.0,mmHg,1,
042-S04-003,5,BASELINE,2026-01-15,DIABP,81.0,mmHg,1,
042-S04-003,6,BASELINE,2026-01-15,PULSE,67.0,bpm,1,
042-S04-003,7,WEEK2,2026-01-31,SYSBP,122.0,mmHg,2,
042-S04-003,8,WEEK2,2026-01-31,DIABP,89.0,mmHg,2,
042-S04-003,9,WEEK2,2026-01-31,PULSE,67.0,bpm,2,
042-S04-003,10,WEEK4,2026-02-16,SYSBP,137.0,mmHg,2,
042-S04-003,11,WEEK4,2026-02-16,DIABP,84.0,mmHg,2,
042-S04-003,12,WEEK4,2026-02-16,PULSE,71.0,bpm,2,
042-S04-003,13,WEEK8,2026-03-14,SYSBP,144.0,mmHg,4,
042-S04-003,14,WEEK8,2026-03-14,DIABP,82.0,mmHg,4,
042-S04-003,15,WEEK8,2026-03-14,PULSE,78.0,bpm,4,
042-S04-003,16,WEEK12,2026-04-11,SYSBP,143.0,mmHg,5,
042-S04-003,17,WEEK12,2026-04-11,DIABP,77.0,mmHg,5,
042-S04-003,18,WEEK12,2026-04-11,PULSE,80.0,bpm,5,
042-S04-003,19,WEEK16,2026-05-10,SYSBP,124.0,mmHg,7,
042-S04-003,20,WEEK16,2026-05-10,DIABP,84.0,mmHg,7,
042-S04-003,21,WEEK16,2026-05-10,PULSE,68.0,bpm,7,
042-S04-003,22,WEEK20,2026-06-06,SYSBP,123.0,mmHg,9,
042-S04-003,23,WEEK20,2026-06-06,DIABP,74.0,mmHg,9,
042-S04-003,24,WEEK20,2026-06-06,PULSE,91.0,bpm,9,
042-S04-003,25,WEEK24,2026-07-06,SYSBP,122.0,mmHg,10,
042-S04-003,26,WEEK24,2026-07-06,DIABP,91.0,mmHg,10,
042-S04-003,27,WEEK24,2026-07-06,PULSE,76.0,bpm,10,
042-S04-003,28,EOS,2026-07-18,SYSBP,120.0,mmHg,11,
042-S04-003,29,EOS,2026-07-18,DIABP,84.0,mmHg,11,
042-S04-003,30,EOS,2026-07-18,PULSE,80.0,bpm,11,
042-S05-003,1,SCREENING,2026-01-03,SYSBP,135.0,mmHg,1,
042-S05-003,2,SCREENING,2026-01-03,DIABP,74.0,mmHg,1,
042-S05-003,3,SCREENING,2026-01-03,PULSE,58.0,bpm,1,
042-S05-003,4,BASELINE,2026-01-16,SYSBP,120.0,mmHg,1,
042-S05-003,5,BASELINE,2026-01-16,DIABP,87.0,mmHg,1,
042-S05-003,6,BASELINE,2026-01-16,PULSE,73.0,bpm,1,
042-S05-003,7,WEEK2,2026-02-02,SYSBP,130.0,mmHg,2,
042-S05-003,8,WEEK2,2026-02-02,DIABP,84.0,mmHg,2,
042-S05-003,9,WEEK2,2026-02-02,PULSE,72.0,bpm,2,
042-S05-003,10,WEEK4,2026-02-14,SYSBP,129.0,mmHg,2,
042-S05-003,11,WEEK4,2026-02-14,DIABP,84.0,mmHg,2,
042-S05-003,12,WEEK4,2026-02-14,PULSE,75.0,bpm,2,
042-S05-003,13,WEEK8,2026-03-13,SYSBP,120.0,mmHg,4,
042-S05-003,14,WEEK8,2026-03-13,DIABP,91.0,mmHg,4,
042-S05-003,15,WEEK8,2026-03-13,PULSE,78.0,bpm,4,
042-S05-003,16,WEEK12,2026-04-13,SYSBP,123.0,mmHg,6,
042-S05-003,17,WEEK12,2026-04-13,DIABP,82.0,mmHg,6,
042-S05-003,18,WEEK12,2026-04-13,PULSE,85.0,bpm,6,
042-S05-003,19,WEEK16,2026-05-11,SYSBP,148.0,mmHg,7,
042-S05-003,20,WEEK16,2026-05-11,DIABP,72.0,mmHg,7,
042-S05-003,21,WEEK16,2026-05-11,PULSE,69.0,bpm,7,
042-S05-003,22,WEEK20,2026-06-08,SYSBP,143.0,mmHg,9,
042-S05-003,23,WEEK20,2026-06-08,DIABP,72.0,mmHg,9,
042-S05-003,24,WEEK20,2026-06-08,PULSE,58.0,bpm,9,
042-S05-003,25,WEEK24,2026-07-03,SYSBP,126.0,mmHg,10,
042-S05-003,26,WEEK24,2026-07-03,DIABP,79.0,mmHg,10,
042-S05-003,27,WEEK24,2026-07-03,PULSE,70.0,bpm,10,
042-S05-003,28,EOS,2026-07-18,SYSBP,122.0,mmHg,11,
042-S05-003,29,EOS,2026-07-18,DIABP,68.0,mmHg,11,
042-S05-003,30,EOS,2026-07-18,PULSE,63.0,bpm,11,
042-S06-003,1,SCREENING,2026-01-19,SYSBP,122.0,mmHg,1,
042-S06-003,2,SCREENING,2026-01-19,DIABP,75.0,mmHg,1,
042-S06-003,3,SCREENING,2026-01-19,PULSE,68.0,bpm,1,
042-S06-003,4,BASELINE,2026-01-30,SYSBP,101.0,mmHg,2,
042-S06-003,5,BASELINE,2026-01-30,DIABP,87.0,mmHg,2,
042-S06-003,6,BASELINE,2026-01-30,PULSE,79.0,bpm,2,
042-S06-003,7,WEEK2,2026-02-11,SYSBP,119.0,mmHg,2,
042-S06-003,8,WEEK2,2026-02-11,DIABP,76.0,mmHg,2,
042-S06-003,9,WEEK2,2026-02-11,PULSE,79.0,bpm,2,
042-S06-003,10,WEEK4,2026-03-02,SYSBP,120.0,mmHg,3,
042-S06-003,11,WEEK4,2026-03-02,DIABP,73.0,mmHg,3,
042-S06-003,12,WEEK4,2026-03-02,PULSE,78.0,bpm,3,
042-S06-003,13,WEEK8,2026-03-25,SYSBP,134.0,mmHg,5,
042-S06-003,14,WEEK8,2026-03-25,DIABP,76.0,mmHg,5,
042-S06-003,15,WEEK8,2026-03-25,PULSE,68.0,bpm,5,
042-S06-003,16,WEEK12,2026-04-26,SYSBP,137.0,mmHg,6,
042-S06-003,17,WEEK12,2026-04-26,DIABP,67.0,mmHg,6,
042-S06-003,18,WEEK12,2026-04-26,PULSE,78.0,bpm,6,
042-S06-003,19,WEEK16,2026-05-24,SYSBP,143.0,mmHg,8,
042-S06-003,20,WEEK16,2026-05-24,DIABP,88.0,mmHg,8,
042-S06-003,21,WEEK16,2026-05-24,PULSE,64.0,bpm,8,
042-S06-003,22,WEEK20,2026-06-23,SYSBP,127.0,mmHg,10,
042-S06-003,23,WEEK20,2026-06-23,DIABP,93.0,mmHg,10,
042-S06-003,24,WEEK20,2026-06-23,PULSE,78.0,bpm,10,
042-S06-003,25,WEEK24,2026-07-20,SYSBP,127.0,mmHg,11,
042-S06-003,26,WEEK24,2026-07-20,DIABP,87.0,mmHg,11,
042-S06-003,27,WEEK24,2026-07-20,PULSE,79.0,bpm,11,
042-S06-003,28,EOS,2026-08-01,SYSBP,125.0,mmHg,12,
042-S06-003,29,EOS,2026-08-01,DIABP,75.0,mmHg,12,
042-S06-003,30,EOS,2026-08-01,PULSE,86.0,bpm,12,
042-S07-003,1,SCREENING,2026-01-14,SYSBP,119.0,mmHg,1,
042-S07-003,2,SCREENING,2026-01-14,DIABP,91.0,mmHg,1,
042-S07-003,3,SCREENING,2026-01-14,PULSE,73.0,bpm,1,
042-S07-003,4,BASELINE,2026-02-01,SYSBP,118.0,mmHg,2,
042-S07-003,5,BASELINE,2026-02-01,DIABP,79.0,mmHg,2,
042-S07-003,6,BASELINE,2026-02-01,PULSE,72.0,bpm,2,
042-S07-003,7,WEEK2,2026-02-14,SYSBP,142.0,mmHg,2,
042-S07-003,8,WEEK2,2026-02-14,DIABP,88.0,mmHg,2,
042-S07-003,9,WEEK2,2026-02-14,PULSE,57.0,bpm,2,
042-S07-003,10,WEEK4,2026-02-27,SYSBP,129.0,mmHg,3,
042-S07-003,11,WEEK4,2026-02-27,DIABP,69.0,mmHg,3,
042-S07-003,12,WEEK4,2026-02-27,PULSE,60.0,bpm,3,
042-S07-003,13,WEEK8,2026-03-18,SYSBP,113.0,mmHg,4,
042-S07-003,14,WEEK8,2026-03-18,DIABP,82.0,mmHg,4,
042-S07-003,15,WEEK8,2026-03-18,PULSE,71.0,bpm,4,
042-S07-003,16,WEEK12,2026-04-24,SYSBP,132.0,mmHg,6,
042-S07-003,17,WEEK12,2026-04-24,DIABP,93.0,mmHg,6,
042-S07-003,18,WEEK12,2026-04-24,PULSE,76.0,bpm,6,
042-S07-003,19,WEEK16,2026-05-23,SYSBP,131.0,mmHg,8,
042-S07-003,20,WEEK16,2026-05-23,DIABP,73.0,mmHg,8,
042-S07-003,21,WEEK16,2026-05-23,PULSE,72.0,bpm,8,
042-S07-003,22,WEEK20,2026-06-20,SYSBP,127.0,mmHg,9,
042-S07-003,23,WEEK20,2026-06-20,DIABP,80.0,mmHg,9,
042-S07-003,24,WEEK20,2026-06-20,PULSE,77.0,bpm,9,
042-S07-003,25,WEEK24,2026-07-18,SYSBP,128.0,mmHg,11,
042-S07-003,26,WEEK24,2026-07-18,DIABP,77.0,mmHg,11,
042-S07-003,27,WEEK24,2026-07-18,PULSE,72.0,bpm,11,
042-S07-003,28,EOS,2026-07-31,SYSBP,118.0,mmHg,12,
042-S07-003,29,EOS,2026-07-31,DIABP,103.0,mmHg,12,
042-S07-003,30,EOS,2026-07-31,PULSE,48.0,bpm,12,
042-S08-003,1,SCREENING,2026-01-14,SYSBP,142.0,mmHg,4,
042-S08-003,2,SCREENING,2026-01-14,DIABP,87.0,mmHg,4,
042-S08-003,3,SCREENING,2026-01-14,PULSE,64.0,bpm,4,
042-S08-003,4,BASELINE,2026-01-27,SYSBP,123.0,mmHg,4,
042-S08-003,5,BASELINE,2026-01-27,DIABP,79.0,mmHg,4,
042-S08-003,6,BASELINE,2026-01-27,PULSE,74.0,bpm,4,
042-S08-003,7,WEEK2,2026-02-14,SYSBP,123.0,mmHg,5,
042-S08-003,8,WEEK2,2026-02-14,DIABP,83.0,mmHg,5,
042-S08-003,9,WEEK2,2026-02-14,PULSE,90.0,bpm,5,
042-S08-003,10,WEEK4,2026-02-17,SYSBP,141.0,mmHg,6,
042-S08-003,11,WEEK4,2026-02-17,DIABP,71.0,mmHg,6,
042-S08-003,12,WEEK4,2026-02-17,PULSE,57.0,bpm,6,
042-S08-003,13,WEEK8,2026-03-28,SYSBP,119.0,mmHg,8,
042-S08-003,14,WEEK8,2026-03-28,DIABP,69.0,mmHg,8,
042-S08-003,15,WEEK8,2026-03-28,PULSE,82.0,bpm,8,
042-S08-003,16,WEEK12,2026-04-25,SYSBP,119.0,mmHg,9,
042-S08-003,17,WEEK12,2026-04-25,DIABP,79.0,mmHg,9,
042-S08-003,18,WEEK12,2026-04-25,PULSE,58.0,bpm,9,
042-S08-003,19,WEEK16,2026-05-21,SYSBP,112.0,mmHg,11,
042-S08-003,20,WEEK16,2026-05-21,DIABP,85.0,mmHg,11,
042-S08-003,21,WEEK16,2026-05-21,PULSE,61.0,bpm,11,
042-S08-003,22,WEEK20,2026-06-17,SYSBP,127.0,mmHg,12,
042-S08-003,23,WEEK20,2026-06-17,DIABP,72.0,mmHg,12,
042-S08-003,24,WEEK20,2026-06-17,PULSE,77.0,bpm,12,
042-S08-003,25,WEEK24,2026-07-17,SYSBP,141.0,mmHg,14,
042-S08-003,26,WEEK24,2026-07-17,DIABP,88.0,mmHg,14,
042-S08-003,27,WEEK24,2026-07-17,PULSE,78.0,bpm,14,
042-S08-003,28,EOS,2026-07-28,SYSBP,145.0,mmHg,14,
042-S08-003,29,EOS,2026-07-28,DIABP,78.0,mmHg,14,
042-S08-003,30,EOS,2026-07-28,PULSE,71.0,bpm,14,
042-S09-003,1,SCREENING,2025-12-30,SYSBP,126.0,mmHg,1,
042-S09-003,2,SCREENING,2025-12-30,DIABP,64.0,mmHg,1,
042-S09-003,3,SCREENING,2025-12-30,PULSE,77.0,bpm,1,
042-S09-003,4,BASELINE,2026-01-14,SYSBP,116.0,mmHg,1,
042-S09-003,5,BASELINE,2026-01-14,DIABP,79.0,mmHg,1,
042-S09-003,6,BASELINE,2026-01-14,PULSE,85.0,bpm,1,
042-S09-003,7,WEEK2,2026-01-25,SYSBP,136.0,mmHg,1,
042-S09-003,8,WEEK2,2026-01-25,DIABP,91.0,mmHg,1,
042-S09-003,9,WEEK2,2026-01-25,PULSE,59.0,bpm,1,
042-S09-003,10,WEEK4,2026-02-07,SYSBP,136.0,mmHg,2,
042-S09-003,11,WEEK4,2026-02-07,DIABP,84.0,mmHg,2,
042-S09-003,12,WEEK4,2026-02-07,PULSE,69.0,bpm,2,
042-S09-003,13,WEEK8,2026-03-09,SYSBP,127.0,mmHg,4,
042-S09-003,14,WEEK8,2026-03-09,DIABP,85.0,mmHg,4,
042-S09-003,15,WEEK8,2026-03-09,PULSE,71.0,bpm,4,
042-S09-003,16,WEEK12,2026-04-07,SYSBP,129.0,mmHg,5,
042-S09-003,17,WEEK12,2026-04-07,DIABP,81.0,mmHg,5,
042-S09-003,18,WEEK12,2026-04-07,PULSE,79.0,bpm,5,
042-S09-003,19,WEEK16,2026-05-02,SYSBP,112.0,mmHg,7,
042-S09-003,20,WEEK16,2026-05-02,DIABP,89.0,mmHg,7,
042-S09-003,21,WEEK16,2026-05-02,PULSE,66.0,bpm,7,
042-S09-003,22,WEEK20,2026-06-05,SYSBP,131.0,mmHg,9,
042-S09-003,23,WEEK20,2026-06-05,DIABP,62.0,mmHg,9,
042-S09-003,24,WEEK20,2026-06-05,PULSE,82.0,bpm,9,
042-S09-003,25,WEEK24,2026-06-30,SYSBP,130.0,mmHg,10,
042-S09-003,26,WEEK24,2026-06-30,DIABP,66.0,mmHg,10,
042-S09-003,27,WEEK24,2026-06-30,PULSE,76.0,bpm,10,
042-S09-003,28,EOS,2026-07-11,SYSBP,140.0,mmHg,11,
042-S09-003,29,EOS,2026-07-11,DIABP,75.0,mmHg,11,
042-S09-003,30,EOS,2026-07-11,PULSE,76.0,bpm,11,
042-S10-003,1,SCREENING,2026-01-11,SYSBP,134.0,mmHg,1,
042-S10-003,2,SCREENING,2026-01-11,DIABP,90.0,mmHg,1,
042-S10-003,3,SCREENING,2026-01-11,PULSE,76.0,bpm,1,
042-S10-003,4,BASELINE,2026-01-25,SYSBP,138.0,mmHg,1,
042-S10-003,5,BASELINE,2026-01-25,DIABP,79.0,mmHg,1,
042-S10-003,6,BASELINE,2026-01-25,PULSE,78.0,bpm,1,
042-S10-003,7,WEEK2,2026-02-16,SYSBP,129.0,mmHg,2,
042-S10-003,8,WEEK2,2026-02-16,DIABP,67.0,mmHg,2,
042-S10-003,9,WEEK2,2026-02-16,PULSE,81.0,bpm,2,
042-S10-003,10,WEEK4,2026-02-19,SYSBP,117.0,mmHg,3,
042-S10-003,11,WEEK4,2026-02-19,DIABP,77.0,mmHg,3,
042-S10-003,12,WEEK4,2026-02-19,PULSE,61.0,bpm,3,
042-S10-003,13,WEEK8,2026-03-19,SYSBP,133.0,mmHg,4,
042-S10-003,14,WEEK8,2026-03-19,DIABP,96.0,mmHg,4,
042-S10-003,15,WEEK8,2026-03-19,PULSE,78.0,bpm,4,
042-S10-003,16,WEEK12,2026-04-16,SYSBP,132.0,mmHg,6,
042-S10-003,17,WEEK12,2026-04-16,DIABP,85.0,mmHg,6,
042-S10-003,18,WEEK12,2026-04-16,PULSE,79.0,bpm,6,
042-S10-003,19,WEEK16,2026-05-20,SYSBP,129.0,mmHg,8,
042-S10-003,20,WEEK16,2026-05-20,DIABP,91.0,mmHg,8,
042-S10-003,21,WEEK16,2026-05-20,PULSE,50.0,bpm,8,
042-S10-003,22,WEEK20,2026-06-13,SYSBP,125.0,mmHg,9,
042-S10-003,23,WEEK20,2026-06-13,DIABP,82.0,mmHg,9,
042-S10-003,24,WEEK20,2026-06-13,PULSE,68.0,bpm,9,
042-S10-003,25,WEEK24,2026-07-10,SYSBP,127.0,mmHg,10,
042-S10-003,26,WEEK24,2026-07-10,DIABP,87.0,mmHg,10,
042-S10-003,27,WEEK24,2026-07-10,PULSE,57.0,bpm,10,
042-S10-003,28,EOS,2026-07-24,SYSBP,122.0,mmHg,11,
042-S10-003,29,EOS,2026-07-24,DIABP,92.0,mmHg,11,
042-S10-003,30,EOS,2026-07-24,PULSE,68.0,bpm,11,
042-S11-003,1,SCREENING,2026-01-13,SYSBP,127.0,mmHg,6,
042-S11-003,2,SCREENING,2026-01-13,DIABP,81.0,mmHg,6,
042-S11-003,3,SCREENING,2026-01-13,PULSE,73.0,bpm,6,
042-S11-003,4,BASELINE,2026-01-27,SYSBP,127.0,mmHg,6,
042-S11-003,5,BASELINE,2026-01-27,DIABP,79.0,mmHg,6,
042-S11-003,6,BASELINE,2026-01-27,PULSE,71.0,bpm,6,
042-S11-003,7,WEEK2,2026-02-10,SYSBP,128.0,mmHg,6,
042-S11-003,8,WEEK2,2026-02-10,DIABP,81.0,mmHg,6,
042-S11-003,9,WEEK2,2026-02-10,PULSE,72.0,bpm,6,
042-S11-003,10,WEEK4,2026-02-24,SYSBP,127.0,mmHg,6,
042-S11-003,11,WEEK4,2026-02-24,DIABP,80.0,mmHg,6,
042-S11-003,12,WEEK4,2026-02-24,PULSE,73.0,bpm,6,
042-S11-003,13,WEEK8,2026-03-24,SYSBP,128.0,mmHg,6,
042-S11-003,14,WEEK8,2026-03-24,DIABP,79.0,mmHg,6,
042-S11-003,15,WEEK8,2026-03-24,PULSE,71.0,bpm,6,
042-S11-003,16,WEEK12,2026-04-21,SYSBP,128.0,mmHg,6,
042-S11-003,17,WEEK12,2026-04-21,DIABP,80.0,mmHg,6,
042-S11-003,18,WEEK12,2026-04-21,PULSE,72.0,bpm,6,
042-S11-003,19,WEEK16,2026-05-19,SYSBP,127.0,mmHg,8,
042-S11-003,20,WEEK16,2026-05-19,DIABP,79.0,mmHg,8,
042-S11-003,21,WEEK16,2026-05-19,PULSE,72.0,bpm,8,
042-S11-003,22,WEEK20,2026-06-16,SYSBP,127.0,mmHg,9,
042-S11-003,23,WEEK20,2026-06-16,DIABP,80.0,mmHg,9,
042-S11-003,24,WEEK20,2026-06-16,PULSE,72.0,bpm,9,
042-S11-003,25,WEEK24,2026-07-14,SYSBP,128.0,mmHg,11,
042-S11-003,26,WEEK24,2026-07-14,DIABP,80.0,mmHg,11,
042-S11-003,27,WEEK24,2026-07-14,PULSE,72.0,bpm,11,
042-S11-003,28,EOS,2026-07-28,SYSBP,128.0,mmHg,11,
042-S11-003,29,EOS,2026-07-28,DIABP,80.0,mmHg,11,
042-S11-003,30,EOS,2026-07-28,PULSE,73.0,bpm,11,
042-S12-003,1,SCREENING,2026-01-01,SYSBP,132.0,mmHg,1,
042-S12-003,2,SCREENING,2026-01-01,DIABP,68.0,mmHg,1,
042-S12-003,3,SCREENING,2026-01-01,PULSE,59.0,bpm,1,
042-S12-003,4,BASELINE,2026-01-15,SYSBP,138.0,mmHg,1,
042-S12-003,5,BASELINE,2026-01-15,DIABP,79.0,mmHg,1,
042-S12-003,6,BASELINE,2026-01-15,PULSE,75.0,bpm,1,
042-S12-003,7,WEEK2,2026-01-31,SYSBP,120.0,mmHg,2,
042-S12-003,8,WEEK2,2026-01-31,DIABP,82.0,mmHg,2,
042-S12-003,9,WEEK2,2026-01-31,PULSE,62.0,bpm,2,
042-S12-003,10,WEEK4,2026-02-15,SYSBP,132.0,mmHg,2,
042-S12-003,11,WEEK4,2026-02-15,DIABP,80.0,mmHg,2,
042-S12-003,12,WEEK4,2026-02-15,PULSE,76.0,bpm,2,
042-S12-003,13,WEEK8,2026-03-12,SYSBP,145.0,mmHg,4,
042-S12-003,14,WEEK8,2026-03-12,DIABP,89.0,mmHg,4,
042-S12-003,15,WEEK8,2026-03-12,PULSE,69.0,bpm,4,
042-S12-003,16,WEEK12,2026-04-13,SYSBP,160.0,mmHg,6,
042-S12-003,17,WEEK12,2026-04-13,DIABP,80.0,mmHg,6,
042-S12-003,18,WEEK12,2026-04-13,PULSE,72.0,bpm,6,
042-S12-003,19,WEEK16,2026-05-18,SYSBP,127.0,mmHg,8,
042-S12-003,20,WEEK16,2026-05-18,DIABP,74.0,mmHg,8,
042-S12-003,21,WEEK16,2026-05-18,PULSE,73.0,bpm,8,
042-S12-003,22,WEEK20,2026-06-08,SYSBP,129.0,mmHg,9,
042-S12-003,23,WEEK20,2026-06-08,DIABP,80.0,mmHg,9,
042-S12-003,24,WEEK20,2026-06-08,PULSE,78.0,bpm,9,
042-S12-003,25,WEEK24,2026-07-04,SYSBP,138.0,mmHg,10,
042-S12-003,26,WEEK24,2026-07-04,DIABP,74.0,mmHg,10,
042-S12-003,27,WEEK24,2026-07-04,PULSE,65.0,bpm,10,
042-S12-003,28,EOS,2026-07-19,SYSBP,136.0,mmHg,11,
042-S12-003,29,EOS,2026-07-19,DIABP,75.0,mmHg,11,
042-S12-003,30,EOS,2026-07-19,PULSE,74.0,bpm,11,
042-S01-004,1,SCREENING,2026-01-04,SYSBP,115.0,mmHg,1,
042-S01-004,2,SCREENING,2026-01-04,DIABP,84.0,mmHg,1,
042-S01-004,3,SCREENING,2026-01-04,PULSE,70.0,bpm,1,
042-S01-004,4,BASELINE,2026-01-19,SYSBP,133.0,mmHg,1,
042-S01-004,5,BASELINE,2026-01-19,DIABP,88.0,mmHg,1,
042-S01-004,6,BASELINE,2026-01-19,PULSE,64.0,bpm,1,
042-S01-004,7,WEEK2,2026-01-29,SYSBP,125.0,mmHg,1,
042-S01-004,8,WEEK2,2026-01-29,DIABP,81.0,mmHg,1,
042-S01-004,9,WEEK2,2026-01-29,PULSE,67.0,bpm,1,
042-S01-004,10,WEEK4,2026-02-15,SYSBP,116.0,mmHg,2,
042-S01-004,11,WEEK4,2026-02-15,DIABP,73.0,mmHg,2,
042-S01-004,12,WEEK4,2026-02-15,PULSE,73.0,bpm,2,
042-S01-004,13,WEEK8,2026-03-09,SYSBP,122.0,mmHg,4,
042-S01-004,14,WEEK8,2026-03-09,DIABP,64.0,mmHg,4,
042-S01-004,15,WEEK8,2026-03-09,PULSE,77.0,bpm,4,
042-S01-004,16,WEEK12,2026-04-09,SYSBP,125.0,mmHg,5,
042-S01-004,17,WEEK12,2026-04-09,DIABP,74.0,mmHg,5,
042-S01-004,18,WEEK12,2026-04-09,PULSE,84.0,bpm,5,
042-S01-004,19,WEEK16,2026-05-15,SYSBP,124.0,mmHg,7,
042-S01-004,20,WEEK16,2026-05-15,DIABP,88.0,mmHg,7,
042-S01-004,21,WEEK16,2026-05-15,PULSE,69.0,bpm,7,
042-S01-004,22,WEEK20,2026-06-06,SYSBP,142.0,mmHg,9,
042-S01-004,23,WEEK20,2026-06-06,DIABP,78.0,mmHg,9,
042-S01-004,24,WEEK20,2026-06-06,PULSE,61.0,bpm,9,
042-S01-004,25,WEEK24,2026-07-03,SYSBP,129.0,mmHg,10,
042-S01-004,26,WEEK24,2026-07-03,DIABP,92.0,mmHg,10,
042-S01-004,27,WEEK24,2026-07-03,PULSE,78.0,bpm,10,
042-S01-004,28,EOS,2026-07-19,SYSBP,119.0,mmHg,11,
042-S01-004,29,EOS,2026-07-19,DIABP,68.0,mmHg,11,
042-S01-004,30,EOS,2026-07-19,PULSE,47.0,bpm,11,
042-S02-004,1,SCREENING,2026-01-05,SYSBP,118.0,mmHg,1,
042-S02-004,2,SCREENING,2026-01-05,DIABP,84.0,mmHg,1,
042-S02-004,3,SCREENING,2026-01-05,PULSE,71.0,bpm,1,
042-S02-004,4,BASELINE,2026-01-19,SYSBP,137.0,mmHg,1,
042-S02-004,5,BASELINE,2026-01-19,DIABP,87.0,mmHg,1,
042-S02-004,6,BASELINE,2026-01-19,PULSE,80.0,bpm,1,
042-S02-004,7,WEEK2,2026-02-07,SYSBP,143.0,mmHg,2,
042-S02-004,8,WEEK2,2026-02-07,DIABP,95.0,mmHg,2,
042-S02-004,9,WEEK2,2026-02-07,PULSE,80.0,bpm,2,
042-S02-004,10,WEEK4,2026-02-15,SYSBP,124.0,mmHg,2,
042-S02-004,11,WEEK4,2026-02-15,DIABP,93.0,mmHg,2,
042-S02-004,12,WEEK4,2026-02-15,PULSE,74.0,bpm,2,
042-S02-004,13,WEEK8,2026-03-14,SYSBP,122.0,mmHg,4,
042-S02-004,14,WEEK8,2026-03-14,DIABP,79.0,mmHg,4,
042-S02-004,15,WEEK8,2026-03-14,PULSE,57.0,bpm,4,
042-S02-004,16,WEEK12,2026-04-12,SYSBP,132.0,mmHg,6,
042-S02-004,17,WEEK12,2026-04-12,DIABP,94.0,mmHg,6,
042-S02-004,18,WEEK12,2026-04-12,PULSE,72.0,bpm,6,
042-S02-004,19,WEEK16,2026-05-05,SYSBP,129.0,mmHg,7,
042-S02-004,20,WEEK16,2026-05-05,DIABP,86.0,mmHg,7,
042-S02-004,21,WEEK16,2026-05-05,PULSE,72.0,bpm,7,
042-S02-004,22,WEEK20,2026-06-06,SYSBP,131.0,mmHg,9,
042-S02-004,23,WEEK20,2026-06-06,DIABP,82.0,mmHg,9,
042-S02-004,24,WEEK20,2026-06-06,PULSE,72.0,bpm,9,
042-S02-004,25,WEEK24,2026-07-01,SYSBP,137.0,mmHg,10,
042-S02-004,26,WEEK24,2026-07-01,DIABP,60.0,mmHg,10,
042-S02-004,27,WEEK24,2026-07-01,PULSE,68.0,bpm,10,
042-S02-004,28,EOS,2026-07-17,SYSBP,115.0,mmHg,11,
042-S02-004,29,EOS,2026-07-17,DIABP,84.0,mmHg,11,
042-S02-004,30,EOS,2026-07-17,PULSE,79.0,bpm,11,
042-S03-004,1,SCREENING,12-JAN-2026,SYSBP,127.0,mmHg,1,
042-S03-004,2,SCREENING,12-JAN-2026,DIABP,75.0,mmHg,1,
042-S03-004,3,SCREENING,12-JAN-2026,PULSE,90.0,bpm,1,
042-S03-004,4,BASELINE,28-JAN-2026,SYSBP,122.0,mmHg,1,
042-S03-004,5,BASELINE,28-JAN-2026,DIABP,75.0,mmHg,1,
042-S03-004,6,BASELINE,28-JAN-2026,PULSE,65.0,bpm,1,
042-S03-004,7,WEEK2,12-FEB-2026,SYSBP,125.0,mmHg,2,
042-S03-004,8,WEEK2,12-FEB-2026,DIABP,88.0,mmHg,2,
042-S03-004,9,WEEK2,12-FEB-2026,PULSE,71.0,bpm,2,
042-S03-004,10,WEEK4,27-FEB-2026,SYSBP,126.0,mmHg,3,
042-S03-004,11,WEEK4,27-FEB-2026,DIABP,96.0,mmHg,3,
042-S03-004,12,WEEK4,27-FEB-2026,PULSE,66.0,bpm,3,
042-S03-004,13,WEEK8,26-MAR-2026,SYSBP,130.0,mmHg,5,
042-S03-004,14,WEEK8,26-MAR-2026,DIABP,87.0,mmHg,5,
042-S03-004,15,WEEK8,26-MAR-2026,PULSE,75.0,bpm,5,
042-S03-004,16,WEEK12,22-APR-2026,SYSBP,137.0,mmHg,6,
042-S03-004,17,WEEK12,22-APR-2026,DIABP,81.0,mmHg,6,
042-S03-004,18,WEEK12,22-APR-2026,PULSE,63.0,bpm,6,
042-S03-004,19,WEEK16,20-MAY-2026,SYSBP,123.0,mmHg,8,
042-S03-004,20,WEEK16,20-MAY-2026,DIABP,81.0,mmHg,8,
042-S03-004,21,WEEK16,20-MAY-2026,PULSE,81.0,bpm,8,
042-S03-004,22,WEEK20,17-JUN-2026,SYSBP,136.0,mmHg,9,
042-S03-004,23,WEEK20,17-JUN-2026,DIABP,83.0,mmHg,9,
042-S03-004,24,WEEK20,17-JUN-2026,PULSE,51.0,bpm,9,
042-S03-004,25,WEEK24,13-JUL-2026,SYSBP,132.0,mmHg,11,
042-S03-004,26,WEEK24,13-JUL-2026,DIABP,67.0,mmHg,11,
042-S03-004,27,WEEK24,13-JUL-2026,PULSE,75.0,bpm,11,
042-S03-004,28,EOS,30-JUL-2026,SYSBP,132.0,mmHg,12,
042-S03-004,29,EOS,30-JUL-2026,DIABP,89.0,mmHg,12,
042-S03-004,30,EOS,30-JUL-2026,PULSE,66.0,bpm,12,
042-S04-004,1,SCREENING,2026-01-07,SYSBP,134.0,mmHg,1,
042-S04-004,2,SCREENING,2026-01-07,DIABP,76.0,mmHg,1,
042-S04-004,3,SCREENING,2026-01-07,PULSE,67.0,bpm,1,
042-S04-004,4,BASELINE,2026-01-23,SYSBP,108.0,mmHg,1,
042-S04-004,5,BASELINE,2026-01-23,DIABP,82.0,mmHg,1,
042-S04-004,6,BASELINE,2026-01-23,PULSE,80.0,bpm,1,
042-S04-004,7,WEEK2,2026-02-04,SYSBP,119.0,mmHg,2,
042-S04-004,8,WEEK2,2026-02-04,DIABP,70.0,mmHg,2,
042-S04-004,9,WEEK2,2026-02-04,PULSE,69.0,bpm,2,
042-S04-004,10,WEEK4,2026-02-21,SYSBP,133.0,mmHg,3,
042-S04-004,11,WEEK4,2026-02-21,DIABP,76.0,mmHg,3,
042-S04-004,12,WEEK4,2026-02-21,PULSE,78.0,bpm,3,
042-S04-004,13,WEEK8,2026-03-18,SYSBP,127.0,mmHg,4,
042-S04-004,14,WEEK8,2026-03-18,DIABP,87.0,mmHg,4,
042-S04-004,15,WEEK8,2026-03-18,PULSE,74.0,bpm,4,
042-S04-004,16,WEEK12,2026-04-16,SYSBP,126.0,mmHg,6,
042-S04-004,17,WEEK12,2026-04-16,DIABP,100.0,mmHg,6,
042-S04-004,18,WEEK12,2026-04-16,PULSE,66.0,bpm,6,
042-S04-004,19,WEEK16,2026-05-13,SYSBP,123.0,mmHg,7,
042-S04-004,20,WEEK16,2026-05-13,DIABP,95.0,mmHg,7,
042-S04-004,21,WEEK16,2026-05-13,PULSE,79.0,bpm,7,
042-S04-004,22,WEEK20,2026-06-09,SYSBP,147.0,mmHg,9,
042-S04-004,23,WEEK20,2026-06-09,DIABP,80.0,mmHg,9,
042-S04-004,24,WEEK20,2026-06-09,PULSE,69.0,bpm,9,
042-S04-004,25,WEEK24,2026-07-11,SYSBP,138.0,mmHg,11,
042-S04-004,26,WEEK24,2026-07-11,DIABP,98.0,mmHg,11,
042-S04-004,27,WEEK24,2026-07-11,PULSE,74.0,bpm,11,
042-S04-004,28,EOS,2026-07-22,SYSBP,126.0,mmHg,11,
042-S04-004,29,EOS,2026-07-22,DIABP,86.0,mmHg,11,
042-S04-004,30,EOS,2026-07-22,PULSE,71.0,bpm,11,
042-S05-004,1,SCREENING,2026-01-01,SYSBP,147.0,mmHg,1,
042-S05-004,2,SCREENING,2026-01-01,DIABP,81.0,mmHg,1,
042-S05-004,3,SCREENING,2026-01-01,PULSE,71.0,bpm,1,
042-S05-004,4,BASELINE,2026-01-14,SYSBP,114.0,mmHg,1,
042-S05-004,5,BASELINE,2026-01-14,DIABP,82.0,mmHg,1,
042-S05-004,6,BASELINE,2026-01-14,PULSE,53.0,bpm,1,
042-S05-004,7,WEEK2,2026-01-30,SYSBP,138.0,mmHg,2,
042-S05-004,8,WEEK2,2026-01-30,DIABP,81.0,mmHg,2,
042-S05-004,9,WEEK2,2026-01-30,PULSE,71.0,bpm,2,
042-S05-004,10,WEEK4,2026-02-12,SYSBP,115.0,mmHg,2,
042-S05-004,11,WEEK4,2026-02-12,DIABP,92.0,mmHg,2,
042-S05-004,12,WEEK4,2026-02-12,PULSE,98.0,bpm,2,
042-S05-004,13,WEEK8,2026-03-13,SYSBP,130.0,mmHg,4,
042-S05-004,14,WEEK8,2026-03-13,DIABP,89.0,mmHg,4,
042-S05-004,15,WEEK8,2026-03-13,PULSE,81.0,bpm,4,
042-S05-004,16,WEEK12,2026-04-06,SYSBP,137.0,mmHg,5,
042-S05-004,17,WEEK12,2026-04-06,DIABP,100.0,mmHg,5,
042-S05-004,18,WEEK12,2026-04-06,PULSE,67.0,bpm,5,
042-S05-004,19,WEEK16,2026-05-04,SYSBP,120.0,mmHg,7,
042-S05-004,20,WEEK16,2026-05-04,DIABP,71.0,mmHg,7,
042-S05-004,21,WEEK16,2026-05-04,PULSE,95.0,bpm,7,
042-S05-004,22,WEEK20,2026-06-02,SYSBP,129.0,mmHg,8,
042-S05-004,23,WEEK20,2026-06-02,DIABP,63.0,mmHg,8,
042-S05-004,24,WEEK20,2026-06-02,PULSE,64.0,bpm,8,
042-S05-004,25,WEEK24,2026-07-01,SYSBP,123.0,mmHg,10,
042-S05-004,26,WEEK24,2026-07-01,DIABP,66.0,mmHg,10,
042-S05-004,27,WEEK24,2026-07-01,PULSE,61.0,bpm,10,
042-S05-004,28,EOS,2026-07-17,SYSBP,125.0,mmHg,11,
042-S05-004,29,EOS,2026-07-17,DIABP,69.0,mmHg,11,
042-S05-004,30,EOS,2026-07-17,PULSE,70.0,bpm,11,
042-S06-004,1,SCREENING,2026-01-04,SYSBP,127.0,mmHg,1,
042-S06-004,2,SCREENING,2026-01-04,DIABP,93.0,mmHg,1,
042-S06-004,3,SCREENING,2026-01-04,PULSE,67.0,bpm,1,
042-S06-004,4,BASELINE,2026-01-21,SYSBP,133.0,mmHg,1,
042-S06-004,5,BASELINE,2026-01-21,DIABP,84.0,mmHg,1,
042-S06-004,6,BASELINE,2026-01-21,PULSE,82.0,bpm,1,
042-S06-004,7,WEEK2,2026-01-30,SYSBP,132.0,mmHg,2,
042-S06-004,8,WEEK2,2026-01-30,DIABP,80.0,mmHg,2,
042-S06-004,9,WEEK2,2026-01-30,PULSE,69.0,bpm,2,
042-S06-004,10,WEEK4,2026-02-15,SYSBP,120.0,mmHg,2,
042-S06-004,11,WEEK4,2026-02-15,DIABP,83.0,mmHg,2,
042-S06-004,12,WEEK4,2026-02-15,PULSE,82.0,bpm,2,
042-S06-004,13,WEEK8,2026-03-19,SYSBP,134.0,mmHg,4,
042-S06-004,14,WEEK8,2026-03-19,DIABP,80.0,mmHg,4,
042-S06-004,15,WEEK8,2026-03-19,PULSE,73.0,bpm,4,
042-S06-004,16,WEEK12,2026-04-14,SYSBP,146.0,mmHg,6,
042-S06-004,17,WEEK12,2026-04-14,DIABP,71.0,mmHg,6,
042-S06-004,18,WEEK12,2026-04-14,PULSE,82.0,bpm,6,
042-S06-004,19,WEEK16,2026-05-11,SYSBP,133.0,mmHg,7,
042-S06-004,20,WEEK16,2026-05-11,DIABP,65.0,mmHg,7,
042-S06-004,21,WEEK16,2026-05-11,PULSE,88.0,bpm,7,
042-S06-004,22,WEEK20,2026-06-08,SYSBP,116.0,mmHg,9,
042-S06-004,23,WEEK20,2026-06-08,DIABP,86.0,mmHg,9,
042-S06-004,24,WEEK20,2026-06-08,PULSE,58.0,bpm,9,
042-S06-004,25,WEEK24,2026-07-07,SYSBP,129.0,mmHg,10,
042-S06-004,26,WEEK24,2026-07-07,DIABP,84.0,mmHg,10,
042-S06-004,27,WEEK24,2026-07-07,PULSE,68.0,bpm,10,
042-S06-004,28,EOS,2026-07-19,SYSBP,130.0,mmHg,11,
042-S06-004,29,EOS,2026-07-19,DIABP,86.0,mmHg,11,
042-S06-004,30,EOS,2026-07-19,PULSE,72.0,bpm,11,
042-S07-004,1,SCREENING,2026-01-10,SYSBP,139.0,mmHg,1,
042-S07-004,2,SCREENING,2026-01-10,DIABP,78.0,mmHg,1,
042-S07-004,3,SCREENING,2026-01-10,PULSE,77.0,bpm,1,
042-S07-004,4,BASELINE,2026-01-25,SYSBP,130.0,mmHg,1,
042-S07-004,5,BASELINE,2026-01-25,DIABP,74.0,mmHg,1,
042-S07-004,6,BASELINE,2026-01-25,PULSE,75.0,bpm,1,
042-S07-004,7,WEEK2,2026-02-07,SYSBP,139.0,mmHg,2,
042-S07-004,8,WEEK2,2026-02-07,DIABP,78.0,mmHg,2,
042-S07-004,9,WEEK2,2026-02-07,PULSE,57.0,bpm,2,
042-S07-004,10,WEEK4,2026-02-21,SYSBP,121.0,mmHg,3,
042-S07-004,11,WEEK4,2026-02-21,DIABP,69.0,mmHg,3,
042-S07-004,12,WEEK4,2026-02-21,PULSE,72.0,bpm,3,
042-S07-004,13,WEEK8,2026-04-03,SYSBP,122.0,mmHg,5,
042-S07-004,14,WEEK8,2026-04-03,DIABP,52.0,mmHg,5,
042-S07-004,15,WEEK8,2026-04-03,PULSE,44.0,bpm,5,
042-S07-004,16,WEEK12,2026-04-22,SYSBP,135.0,mmHg,6,
042-S07-004,17,WEEK12,2026-04-22,DIABP,90.0,mmHg,6,
042-S07-004,18,WEEK12,2026-04-22,PULSE,56.0,bpm,6,
042-S07-004,19,WEEK16,2026-05-17,SYSBP,102.0,mmHg,7,
042-S07-004,20,WEEK16,2026-05-17,DIABP,86.0,mmHg,7,
042-S07-004,21,WEEK16,2026-05-17,PULSE,87.0,bpm,7,
042-S07-004,22,WEEK20,2026-06-16,SYSBP,124.0,mmHg,9,
042-S07-004,23,WEEK20,2026-06-16,DIABP,70.0,mmHg,9,
042-S07-004,24,WEEK20,2026-06-16,PULSE,71.0,bpm,9,
042-S07-004,25,WEEK24,2026-07-11,SYSBP,116.0,mmHg,11,
042-S07-004,26,WEEK24,2026-07-11,DIABP,65.0,mmHg,11,
042-S07-004,27,WEEK24,2026-07-11,PULSE,68.0,bpm,11,
042-S07-004,28,EOS,2026-07-25,SYSBP,123.0,mmHg,11,
042-S07-004,29,EOS,2026-07-25,DIABP,74.0,mmHg,11,
042-S07-004,30,EOS,2026-07-25,PULSE,84.0,bpm,11,
042-S08-004,1,SCREENING,2026-01-13,SYSBP,127.0,mmHg,4,
042-S08-004,2,SCREENING,2026-01-13,DIABP,81.0,mmHg,4,
042-S08-004,3,SCREENING,2026-01-13,PULSE,75.0,bpm,4,
042-S08-004,4,BASELINE,2026-01-26,SYSBP,128.0,mmHg,4,
042-S08-004,5,BASELINE,2026-01-26,DIABP,77.0,mmHg,4,
042-S08-004,6,BASELINE,2026-01-26,PULSE,66.0,bpm,4,
042-S08-004,7,WEEK2,2026-02-09,SYSBP,133.0,mmHg,5,
042-S08-004,8,WEEK2,2026-02-09,DIABP,93.0,mmHg,5,
042-S08-004,9,WEEK2,2026-02-09,PULSE,80.0,bpm,5,
042-S08-004,10,WEEK4,2026-03-06,SYSBP,124.0,mmHg,6,
042-S08-004,11,WEEK4,2026-03-06,DIABP,75.0,mmHg,6,
042-S08-004,12,WEEK4,2026-03-06,PULSE,74.0,bpm,6,
042-S08-004,13,WEEK8,2026-03-27,SYSBP,132.0,mmHg,8,
042-S08-004,14,WEEK8,2026-03-27,DIABP,78.0,mmHg,8,
042-S08-004,15,WEEK8,2026-03-27,PULSE,72.0,bpm,8,
042-S08-004,16,WEEK12,2026-04-24,SYSBP,114.0,mmHg,9,
042-S08-004,17,WEEK12,2026-04-24,DIABP,89.0,mmHg,9,
042-S08-004,18,WEEK12,2026-04-24,PULSE,68.0,bpm,9,
042-S08-004,19,WEEK16,2026-05-18,SYSBP,134.0,mmHg,11,
042-S08-004,20,WEEK16,2026-05-18,DIABP,71.0,mmHg,11,
042-S08-004,21,WEEK16,2026-05-18,PULSE,72.0,bpm,11,
042-S08-004,22,WEEK20,2026-06-16,SYSBP,118.0,mmHg,12,
042-S08-004,23,WEEK20,2026-06-16,DIABP,79.0,mmHg,12,
042-S08-004,24,WEEK20,2026-06-16,PULSE,85.0,bpm,12,
042-S08-004,25,WEEK24,2026-07-17,SYSBP,136.0,mmHg,14,
042-S08-004,26,WEEK24,2026-07-17,DIABP,84.0,mmHg,14,
042-S08-004,27,WEEK24,2026-07-17,PULSE,72.0,bpm,14,
042-S08-004,28,EOS,2026-07-30,SYSBP,154.0,mmHg,15,
042-S08-004,29,EOS,2026-07-30,DIABP,84.0,mmHg,15,
042-S08-004,30,EOS,2026-07-30,PULSE,75.0,bpm,15,
042-S09-004,1,SCREENING,2025-12-31,SYSBP,130.0,mmHg,1,
042-S09-004,2,SCREENING,2025-12-31,DIABP,83.0,mmHg,1,
042-S09-004,3,SCREENING,2025-12-31,PULSE,70.0,bpm,1,
042-S09-004,4,BASELINE,2026-01-13,SYSBP,111.0,mmHg,1,
042-S09-004,5,BASELINE,2026-01-13,DIABP,71.0,mmHg,1,
042-S09-004,6,BASELINE,2026-01-13,PULSE,79.0,bpm,1,
042-S09-004,7,WEEK2,2026-01-29,SYSBP,133.0,mmHg,1,
042-S09-004,8,WEEK2,2026-01-29,DIABP,82.0,mmHg,1,
042-S09-004,9,WEEK2,2026-01-29,PULSE,83.0,bpm,1,
042-S09-004,10,WEEK4,2026-02-12,SYSBP,136.0,mmHg,2,
042-S09-004,11,WEEK4,2026-02-12,DIABP,80.0,mmHg,2,
042-S09-004,12,WEEK4,2026-02-12,PULSE,73.0,bpm,2,
042-S09-004,13,WEEK8,2026-03-08,SYSBP,116.0,mmHg,4,
042-S09-004,14,WEEK8,2026-03-08,DIABP,74.0,mmHg,4,
042-S09-004,15,WEEK8,2026-03-08,PULSE,68.0,bpm,4,
042-S09-004,16,WEEK12,2026-04-12,SYSBP,134.0,mmHg,6,
042-S09-004,17,WEEK12,2026-04-12,DIABP,76.0,mmHg,6,
042-S09-004,18,WEEK12,2026-04-12,PULSE,77.0,bpm,6,
042-S09-004,19,WEEK16,2026-04-30,SYSBP,111.0,mmHg,7,
042-S09-004,20,WEEK16,2026-04-30,DIABP,85.0,mmHg,7,
042-S09-004,21,WEEK16,2026-04-30,PULSE,76.0,bpm,7,
042-S09-004,22,WEEK20,2026-06-02,SYSBP,142.0,mmHg,8,
042-S09-004,23,WEEK20,2026-06-02,DIABP,80.0,mmHg,8,
042-S09-004,24,WEEK20,2026-06-02,PULSE,90.0,bpm,8,
042-S09-004,25,WEEK24,2026-06-28,SYSBP,137.0,mmHg,10,
042-S09-004,26,WEEK24,2026-06-28,DIABP,78.0,mmHg,10,
042-S09-004,27,WEEK24,2026-06-28,PULSE,68.0,bpm,10,
042-S09-004,28,EOS,2026-07-16,SYSBP,127.0,mmHg,11,
042-S09-004,29,EOS,2026-07-16,DIABP,77.0,mmHg,11,
042-S09-004,30,EOS,2026-07-16,PULSE,66.0,bpm,11,
042-S10-004,1,SCREENING,2026-01-04,SYSBP,130.0,mmHg,1,
042-S10-004,2,SCREENING,2026-01-04,DIABP,85.0,mmHg,1,
042-S10-004,3,SCREENING,2026-01-04,PULSE,70.0,bpm,1,
042-S10-004,4,BASELINE,2026-01-19,SYSBP,118.0,mmHg,1,
042-S10-004,5,BASELINE,2026-01-19,DIABP,92.0,mmHg,1,
042-S10-004,6,BASELINE,2026-01-19,PULSE,81.0,bpm,1,
042-S10-004,7,WEEK2,2026-01-31,SYSBP,126.0,mmHg,2,
042-S10-004,8,WEEK2,2026-01-31,DIABP,75.0,mmHg,2,
042-S10-004,9,WEEK2,2026-01-31,PULSE,67.0,bpm,2,
042-S10-004,10,WEEK4,2026-02-12,SYSBP,132.0,mmHg,2,
042-S10-004,11,WEEK4,2026-02-12,DIABP,55.0,mmHg,2,
042-S10-004,12,WEEK4,2026-02-12,PULSE,61.0,bpm,2,
042-S10-004,13,WEEK8,2026-03-13,SYSBP,123.0,mmHg,4,
042-S10-004,14,WEEK8,2026-03-13,DIABP,62.0,mmHg,4,
042-S10-004,15,WEEK8,2026-03-13,PULSE,75.0,bpm,4,
042-S10-004,16,WEEK12,2026-04-13,SYSBP,145.0,mmHg,6,
042-S10-004,17,WEEK12,2026-04-13,DIABP,91.0,mmHg,6,
042-S10-004,18,WEEK12,2026-04-13,PULSE,69.0,bpm,6,
042-S10-004,19,WEEK16,2026-05-09,SYSBP,120.0,mmHg,7,
042-S10-004,20,WEEK16,2026-05-09,DIABP,79.0,mmHg,7,
042-S10-004,21,WEEK16,2026-05-09,PULSE,65.0,bpm,7,
042-S10-004,22,WEEK20,2026-06-07,SYSBP,135.0,mmHg,9,
042-S10-004,23,WEEK20,2026-06-07,DIABP,82.0,mmHg,9,
042-S10-004,24,WEEK20,2026-06-07,PULSE,70.0,bpm,9,
042-S10-004,25,WEEK24,2026-07-13,SYSBP,132.0,mmHg,11,
042-S10-004,26,WEEK24,2026-07-13,DIABP,91.0,mmHg,11,
042-S10-004,27,WEEK24,2026-07-13,PULSE,78.0,bpm,11,
042-S10-004,28,EOS,2026-07-19,SYSBP,129.0,mmHg,11,
042-S10-004,29,EOS,2026-07-19,DIABP,73.0,mmHg,11,
042-S10-004,30,EOS,2026-07-19,PULSE,67.0,bpm,11,
042-S11-004,1,SCREENING,2026-01-20,SYSBP,127.0,mmHg,6,
042-S11-004,2,SCREENING,2026-01-20,DIABP,80.0,mmHg,6,
042-S11-004,3,SCREENING,2026-01-20,PULSE,72.0,bpm,6,
042-S11-004,4,BASELINE,2026-02-03,SYSBP,127.0,mmHg,6,
042-S11-004,5,BASELINE,2026-02-03,DIABP,81.0,mmHg,6,
042-S11-004,6,BASELINE,2026-02-03,PULSE,72.0,bpm,6,
042-S11-004,7,WEEK2,2026-02-17,SYSBP,128.0,mmHg,6,
042-S11-004,8,WEEK2,2026-02-17,DIABP,80.0,mmHg,6,
042-S11-004,9,WEEK2,2026-02-17,PULSE,71.0,bpm,6,
042-S11-004,10,WEEK4,2026-03-03,SYSBP,128.0,mmHg,6,
042-S11-004,11,WEEK4,2026-03-03,DIABP,80.0,mmHg,6,
042-S11-004,12,WEEK4,2026-03-03,PULSE,71.0,bpm,6,
042-S11-004,13,WEEK8,2026-03-31,SYSBP,127.0,mmHg,6,
042-S11-004,14,WEEK8,2026-03-31,DIABP,80.0,mmHg,6,
042-S11-004,15,WEEK8,2026-03-31,PULSE,72.0,bpm,6,
042-S11-004,16,WEEK12,2026-04-28,SYSBP,129.0,mmHg,6,
042-S11-004,17,WEEK12,2026-04-28,DIABP,80.0,mmHg,6,
042-S11-004,18,WEEK12,2026-04-28,PULSE,72.0,bpm,6,
042-S11-004,19,WEEK16,2026-05-26,SYSBP,129.0,mmHg,8,
042-S11-004,20,WEEK16,2026-05-26,DIABP,81.0,mmHg,8,
042-S11-004,21,WEEK16,2026-05-26,PULSE,71.0,bpm,8,
042-S11-004,22,WEEK20,2026-06-23,SYSBP,128.0,mmHg,10,
042-S11-004,23,WEEK20,2026-06-23,DIABP,80.0,mmHg,10,
042-S11-004,24,WEEK20,2026-06-23,PULSE,73.0,bpm,10,
042-S11-004,25,WEEK24,2026-07-21,SYSBP,129.0,mmHg,11,
042-S11-004,26,WEEK24,2026-07-21,DIABP,80.0,mmHg,11,
042-S11-004,27,WEEK24,2026-07-21,PULSE,72.0,bpm,11,
042-S11-004,28,EOS,2026-08-04,SYSBP,129.0,mmHg,12,
042-S11-004,29,EOS,2026-08-04,DIABP,80.0,mmHg,12,
042-S11-004,30,EOS,2026-08-04,PULSE,72.0,bpm,12,
042-S12-004,1,SCREENING,2026-01-19,SYSBP,130.0,mmHg,1,
042-S12-004,2,SCREENING,2026-01-19,DIABP,79.0,mmHg,1,
042-S12-004,3,SCREENING,2026-01-19,PULSE,73.0,bpm,1,
042-S12-004,4,BASELINE,2026-02-02,SYSBP,113.0,mmHg,2,
042-S12-004,5,BASELINE,2026-02-02,DIABP,83.0,mmHg,2,
042-S12-004,6,BASELINE,2026-02-02,PULSE,81.0,bpm,2,
042-S12-004,7,WEEK2,2026-02-12,SYSBP,126.0,mmHg,2,
042-S12-004,8,WEEK2,2026-02-12,DIABP,88.0,mmHg,2,
042-S12-004,9,WEEK2,2026-02-12,PULSE,57.0,bpm,2,
042-S12-004,10,WEEK4,2026-02-28,SYSBP,131.0,mmHg,3,
042-S12-004,11,WEEK4,2026-02-28,DIABP,63.0,mmHg,3,
042-S12-004,12,WEEK4,2026-02-28,PULSE,66.0,bpm,3,
042-S12-004,13,WEEK8,2026-03-27,SYSBP,130.0,mmHg,5,
042-S12-004,14,WEEK8,2026-03-27,DIABP,88.0,mmHg,5,
042-S12-004,15,WEEK8,2026-03-27,PULSE,74.0,bpm,5,
042-S12-004,16,WEEK12,2026-04-24,SYSBP,126.0,mmHg,6,
042-S12-004,17,WEEK12,2026-04-24,DIABP,82.0,mmHg,6,
042-S12-004,18,WEEK12,2026-04-24,PULSE,74.0,bpm,6,
042-S12-004,19,WEEK16,2026-05-24,SYSBP,115.0,mmHg,8,
042-S12-004,20,WEEK16,2026-05-24,DIABP,68.0,mmHg,8,
042-S12-004,21,WEEK16,2026-05-24,PULSE,76.0,bpm,8,
042-S12-004,22,WEEK20,2026-06-18,SYSBP,129.0,mmHg,9,
042-S12-004,23,WEEK20,2026-06-18,DIABP,100.0,mmHg,9,
042-S12-004,24,WEEK20,2026-06-18,PULSE,69.0,bpm,9,
042-S12-004,25,WEEK24,2026-07-18,SYSBP,127.0,mmHg,11,
042-S12-004,26,WEEK24,2026-07-18,DIABP,86.0,mmHg,11,
042-S12-004,27,WEEK24,2026-07-18,PULSE,63.0,bpm,11,
042-S12-004,28,EOS,2026-08-10,SYSBP,131.0,mmHg,12,
042-S12-004,29,EOS,2026-08-10,DIABP,77.0,mmHg,12,
042-S12-004,30,EOS,2026-08-10,PULSE,69.0,bpm,12,
042-S01-005,1,SCREENING,2026-01-11,SYSBP,124.0,mmHg,1,
042-S01-005,2,SCREENING,2026-01-11,DIABP,76.0,mmHg,1,
042-S01-005,3,SCREENING,2026-01-11,PULSE,92.0,bpm,1,
042-S01-005,4,BASELINE,2026-01-28,SYSBP,119.0,mmHg,1,
042-S01-005,5,BASELINE,2026-01-28,DIABP,83.0,mmHg,1,
042-S01-005,6,BASELINE,2026-01-28,PULSE,74.0,bpm,1,
042-S01-005,7,WEEK2,2026-02-08,SYSBP,135.0,mmHg,2,
042-S01-005,8,WEEK2,2026-02-08,DIABP,76.0,mmHg,2,
042-S01-005,9,WEEK2,2026-02-08,PULSE,80.0,bpm,2,
042-S01-005,10,WEEK4,2026-02-22,SYSBP,122.0,mmHg,3,
042-S01-005,11,WEEK4,2026-02-22,DIABP,65.0,mmHg,3,
042-S01-005,12,WEEK4,2026-02-22,PULSE,65.0,bpm,3,
042-S01-005,13,WEEK8,2026-03-22,SYSBP,130.0,mmHg,4,
042-S01-005,14,WEEK8,2026-03-22,DIABP,85.0,mmHg,4,
042-S01-005,15,WEEK8,2026-03-22,PULSE,67.0,bpm,4,
042-S01-005,16,WEEK12,2026-04-21,SYSBP,119.0,mmHg,6,
042-S01-005,17,WEEK12,2026-04-21,DIABP,87.0,mmHg,6,
042-S01-005,18,WEEK12,2026-04-21,PULSE,71.0,bpm,6,
042-S01-005,19,WEEK16,2026-05-18,SYSBP,130.0,mmHg,8,
042-S01-005,20,WEEK16,2026-05-18,DIABP,60.0,mmHg,8,
042-S01-005,21,WEEK16,2026-05-18,PULSE,75.0,bpm,8,
042-S01-005,22,WEEK20,2026-06-13,SYSBP,133.0,mmHg,9,
042-S01-005,23,WEEK20,2026-06-13,DIABP,72.0,mmHg,9,
042-S01-005,24,WEEK20,2026-06-13,PULSE,69.0,bpm,9,
042-S01-005,25,WEEK24,2026-07-09,SYSBP,125.0,mmHg,10,
042-S01-005,26,WEEK24,2026-07-09,DIABP,77.0,mmHg,10,
042-S01-005,27,WEEK24,2026-07-09,PULSE,73.0,bpm,10,
042-S01-005,28,EOS,2026-07-25,SYSBP,127.0,mmHg,11,
042-S01-005,29,EOS,2026-07-25,DIABP,69.0,mmHg,11,
042-S01-005,30,EOS,2026-07-25,PULSE,76.0,bpm,11,
042-S02-005,1,SCREENING,2026-01-01,SYSBP,125.0,mmHg,1,
042-S02-005,2,SCREENING,2026-01-01,DIABP,77.0,mmHg,1,
042-S02-005,3,SCREENING,2026-01-01,PULSE,58.0,bpm,1,
042-S02-005,4,BASELINE,2026-01-12,SYSBP,123.0,mmHg,1,
042-S02-005,5,BASELINE,2026-01-12,DIABP,81.0,mmHg,1,
042-S02-005,6,BASELINE,2026-01-12,PULSE,79.0,bpm,1,
042-S02-005,7,WEEK2,2026-01-28,SYSBP,141.0,mmHg,1,
042-S02-005,8,WEEK2,2026-01-28,DIABP,76.0,mmHg,1,
042-S02-005,9,WEEK2,2026-01-28,PULSE,67.0,bpm,1,
042-S02-005,10,WEEK4,2026-02-09,SYSBP,121.0,mmHg,2,
042-S02-005,11,WEEK4,2026-02-09,DIABP,72.0,mmHg,2,
042-S02-005,12,WEEK4,2026-02-09,PULSE,78.0,bpm,2,
042-S02-005,13,WEEK8,2026-03-15,SYSBP,127.0,mmHg,4,
042-S02-005,14,WEEK8,2026-03-15,DIABP,79.0,mmHg,4,
042-S02-005,15,WEEK8,2026-03-15,PULSE,69.0,bpm,4,
042-S02-005,16,WEEK12,2026-04-05,SYSBP,121.0,mmHg,5,
042-S02-005,17,WEEK12,2026-04-05,DIABP,87.0,mmHg,5,
042-S02-005,18,WEEK12,2026-04-05,PULSE,66.0,bpm,5,
042-S02-005,19,WEEK16,2026-04-25,SYSBP,121.0,mmHg,6,
042-S02-005,20,WEEK16,2026-04-25,DIABP,86.0,mmHg,6,
042-S02-005,21,WEEK16,2026-04-25,PULSE,80.0,bpm,6,
042-S02-005,22,WEEK20,2026-05-31,SYSBP,115.0,mmHg,8,
042-S02-005,23,WEEK20,2026-05-31,DIABP,87.0,mmHg,8,
042-S02-005,24,WEEK20,2026-05-31,PULSE,69.0,bpm,8,
042-S02-005,25,WEEK24,2026-06-28,SYSBP,120.0,mmHg,10,
042-S02-005,26,WEEK24,2026-06-28,DIABP,88.0,mmHg,10,
042-S02-005,27,WEEK24,2026-06-28,PULSE,77.0,bpm,10,
042-S02-005,28,EOS,2026-07-12,SYSBP,120.0,mmHg,11,
042-S02-005,29,EOS,2026-07-12,DIABP,73.0,mmHg,11,
042-S02-005,30,EOS,2026-07-12,PULSE,70.0,bpm,11,
042-S03-005,1,SCREENING,12-JAN-2026,SYSBP,122.0,mmHg,1,
042-S03-005,2,SCREENING,12-JAN-2026,DIABP,84.0,mmHg,1,
042-S03-005,3,SCREENING,12-JAN-2026,PULSE,65.0,bpm,1,
042-S03-005,4,BASELINE,28-JAN-2026,SYSBP,133.0,mmHg,1,
042-S03-005,5,BASELINE,28-JAN-2026,DIABP,77.0,mmHg,1,
042-S03-005,6,BASELINE,28-JAN-2026,PULSE,55.0,bpm,1,
042-S03-005,7,WEEK2,10-FEB-2026,SYSBP,140.0,mmHg,2,
042-S03-005,8,WEEK2,10-FEB-2026,DIABP,85.0,mmHg,2,
042-S03-005,9,WEEK2,10-FEB-2026,PULSE,78.0,bpm,2,
042-S03-005,10,WEEK4,23-FEB-2026,SYSBP,130.0,mmHg,3,
042-S03-005,11,WEEK4,23-FEB-2026,DIABP,79.0,mmHg,3,
042-S03-005,12,WEEK4,23-FEB-2026,PULSE,79.0,bpm,3,
042-S03-005,13,WEEK8,23-MAR-2026,SYSBP,142.0,mmHg,4,
042-S03-005,14,WEEK8,23-MAR-2026,DIABP,89.0,mmHg,4,
042-S03-005,15,WEEK8,23-MAR-2026,PULSE,75.0,bpm,4,
042-S03-005,16,WEEK12,20-APR-2026,SYSBP,117.0,mmHg,6,
042-S03-005,17,WEEK12,20-APR-2026,DIABP,78.0,mmHg,6,
042-S03-005,18,WEEK12,20-APR-2026,PULSE,85.0,bpm,6,
042-S03-005,19,WEEK16,19-MAY-2026,SYSBP,121.0,mmHg,8,
042-S03-005,20,WEEK16,19-MAY-2026,DIABP,67.0,mmHg,8,
042-S03-005,21,WEEK16,19-MAY-2026,PULSE,75.0,bpm,8,
042-S03-005,22,WEEK20,16-JUN-2026,SYSBP,126.0,mmHg,9,
042-S03-005,23,WEEK20,16-JUN-2026,DIABP,90.0,mmHg,9,
042-S03-005,24,WEEK20,16-JUN-2026,PULSE,85.0,bpm,9,
042-S03-005,25,WEEK24,21-JUL-2026,SYSBP,132.0,mmHg,11,
042-S03-005,26,WEEK24,21-JUL-2026,DIABP,77.0,mmHg,11,
042-S03-005,27,WEEK24,21-JUL-2026,PULSE,70.0,bpm,11,
042-S03-005,28,EOS,28-JUL-2026,SYSBP,132.0,mmHg,11,
042-S03-005,29,EOS,28-JUL-2026,DIABP,77.0,mmHg,11,
042-S03-005,30,EOS,28-JUL-2026,PULSE,86.0,bpm,11,
042-S04-005,1,SCREENING,2026-01-08,SYSBP,141.0,mmHg,1,
042-S04-005,2,SCREENING,2026-01-08,DIABP,87.0,mmHg,1,
042-S04-005,3,SCREENING,2026-01-08,PULSE,72.0,bpm,1,
042-S04-005,4,BASELINE,2026-01-20,SYSBP,127.0,mmHg,1,
042-S04-005,5,BASELINE,2026-01-20,DIABP,87.0,mmHg,1,
042-S04-005,6,BASELINE,2026-01-20,PULSE,77.0,bpm,1,
042-S04-005,7,WEEK2,2026-02-04,SYSBP,132.0,mmHg,2,
042-S04-005,8,WEEK2,2026-02-04,DIABP,93.0,mmHg,2,
042-S04-005,9,WEEK2,2026-02-04,PULSE,55.0,bpm,2,
042-S04-005,10,WEEK4,2026-02-18,SYSBP,136.0,mmHg,3,
042-S04-005,11,WEEK4,2026-02-18,DIABP,76.0,mmHg,3,
042-S04-005,12,WEEK4,2026-02-18,PULSE,60.0,bpm,3,
042-S04-005,13,WEEK8,2026-03-16,SYSBP,121.0,mmHg,4,
042-S04-005,14,WEEK8,2026-03-16,DIABP,81.0,mmHg,4,
042-S04-005,15,WEEK8,2026-03-16,PULSE,70.0,bpm,4,
042-S04-005,16,WEEK12,2026-04-16,SYSBP,146.0,mmHg,6,
042-S04-005,17,WEEK12,2026-04-16,DIABP,65.0,mmHg,6,
042-S04-005,18,WEEK12,2026-04-16,PULSE,78.0,bpm,6,
042-S04-005,19,WEEK16,2026-05-15,SYSBP,135.0,mmHg,7,
042-S04-005,20,WEEK16,2026-05-15,DIABP,96.0,mmHg,7,
042-S04-005,21,WEEK16,2026-05-15,PULSE,59.0,bpm,7,
042-S04-005,22,WEEK20,2026-06-09,SYSBP,139.0,mmHg,9,
042-S04-005,23,WEEK20,2026-06-09,DIABP,91.0,mmHg,9,
042-S04-005,24,WEEK20,2026-06-09,PULSE,82.0,bpm,9,
042-S04-005,25,WEEK24,2026-07-08,SYSBP,116.0,mmHg,10,
042-S04-005,26,WEEK24,2026-07-08,DIABP,70.0,mmHg,10,
042-S04-005,27,WEEK24,2026-07-08,PULSE,83.0,bpm,10,
042-S04-005,28,EOS,2026-07-26,SYSBP,133.0,mmHg,11,
042-S04-005,29,EOS,2026-07-26,DIABP,71.0,mmHg,11,
042-S04-005,30,EOS,2026-07-26,PULSE,84.0,bpm,11,
042-S05-005,1,SCREENING,2026-01-12,SYSBP,125.0,mmHg,1,
042-S05-005,2,SCREENING,2026-01-12,DIABP,81.0,mmHg,1,
042-S05-005,3,SCREENING,2026-01-12,PULSE,79.0,bpm,1,
042-S05-005,4,BASELINE,2026-01-24,SYSBP,119.0,mmHg,1,
042-S05-005,5,BASELINE,2026-01-24,DIABP,94.0,mmHg,1,
042-S05-005,6,BASELINE,2026-01-24,PULSE,75.0,bpm,1,
042-S05-005,7,WEEK2,2026-02-08,SYSBP,136.0,mmHg,2,
042-S05-005,8,WEEK2,2026-02-08,DIABP,82.0,mmHg,2,
042-S05-005,9,WEEK2,2026-02-08,PULSE,84.0,bpm,2,
042-S05-005,10,WEEK4,2026-02-21,SYSBP,120.0,mmHg,3,
042-S05-005,11,WEEK4,2026-02-21,DIABP,83.0,mmHg,3,
042-S05-005,12,WEEK4,2026-02-21,PULSE,79.0,bpm,3,
042-S05-005,13,WEEK8,2026-03-23,SYSBP,131.0,mmHg,4,
042-S05-005,14,WEEK8,2026-03-23,DIABP,87.0,mmHg,4,
042-S05-005,15,WEEK8,2026-03-23,PULSE,78.0,bpm,4,
042-S05-005,16,WEEK12,2026-04-21,SYSBP,119.0,mmHg,6,
042-S05-005,17,WEEK12,2026-04-21,DIABP,74.0,mmHg,6,
042-S05-005,18,WEEK12,2026-04-21,PULSE,61.0,bpm,6,
042-S05-005,19,WEEK16,2026-05-18,SYSBP,125.0,mmHg,8,
042-S05-005,20,WEEK16,2026-05-18,DIABP,85.0,mmHg,8,
042-S05-005,21,WEEK16,2026-05-18,PULSE,81.0,bpm,8,
042-S05-005,22,WEEK20,2026-06-15,SYSBP,119.0,mmHg,9,
042-S05-005,23,WEEK20,2026-06-15,DIABP,78.0,mmHg,9,
042-S05-005,24,WEEK20,2026-06-15,PULSE,76.0,bpm,9,
042-S05-005,25,WEEK24,2026-07-14,SYSBP,143.0,mmHg,11,
042-S05-005,26,WEEK24,2026-07-14,DIABP,92.0,mmHg,11,
042-S05-005,27,WEEK24,2026-07-14,PULSE,87.0,bpm,11,
042-S05-005,28,EOS,2026-07-27,SYSBP,138.0,mmHg,11,
042-S05-005,29,EOS,2026-07-27,DIABP,87.0,mmHg,11,
042-S05-005,30,EOS,2026-07-27,PULSE,64.0,bpm,11,
042-S06-005,1,SCREENING,2026-01-09,SYSBP,137.0,mmHg,1,
042-S06-005,2,SCREENING,2026-01-09,DIABP,88.0,mmHg,1,
042-S06-005,3,SCREENING,2026-01-09,PULSE,62.0,bpm,1,
042-S06-005,4,BASELINE,2026-01-23,SYSBP,121.0,mmHg,1,
042-S06-005,5,BASELINE,2026-01-23,DIABP,59.0,mmHg,1,
042-S06-005,6,BASELINE,2026-01-23,PULSE,55.0,bpm,1,
042-S06-005,7,WEEK2,2026-02-05,SYSBP,129.0,mmHg,2,
042-S06-005,8,WEEK2,2026-02-05,DIABP,68.0,mmHg,2,
042-S06-005,9,WEEK2,2026-02-05,PULSE,76.0,bpm,2,
042-S06-005,10,WEEK4,2026-02-21,SYSBP,136.0,mmHg,3,
042-S06-005,11,WEEK4,2026-02-21,DIABP,83.0,mmHg,3,
042-S06-005,12,WEEK4,2026-02-21,PULSE,58.0,bpm,3,
042-S06-005,13,WEEK8,2026-03-17,SYSBP,127.0,mmHg,4,
042-S06-005,14,WEEK8,2026-03-17,DIABP,66.0,mmHg,4,
042-S06-005,15,WEEK8,2026-03-17,PULSE,77.0,bpm,4,
042-S06-005,16,WEEK12,2026-04-19,SYSBP,119.0,mmHg,6,
042-S06-005,17,WEEK12,2026-04-19,DIABP,74.0,mmHg,6,
042-S06-005,18,WEEK12,2026-04-19,PULSE,63.0,bpm,6,
042-S06-005,19,WEEK16,2026-05-17,SYSBP,116.0,mmHg,7,
042-S06-005,20,WEEK16,2026-05-17,DIABP,80.0,mmHg,7,
042-S06-005,21,WEEK16,2026-05-17,PULSE,71.0,bpm,7,
042-S06-005,22,WEEK20,2026-06-15,SYSBP,121.0,mmHg,9,
042-S06-005,23,WEEK20,2026-06-15,DIABP,79.0,mmHg,9,
042-S06-005,24,WEEK20,2026-06-15,PULSE,74.0,bpm,9,
042-S06-005,25,WEEK24,2026-07-10,SYSBP,129.0,mmHg,10,
042-S06-005,26,WEEK24,2026-07-10,DIABP,70.0,mmHg,10,
042-S06-005,27,WEEK24,2026-07-10,PULSE,87.0,bpm,10,
042-S06-005,28,EOS,2026-07-23,SYSBP,129.0,mmHg,11,
042-S06-005,29,EOS,2026-07-23,DIABP,74.0,mmHg,11,
042-S06-005,30,EOS,2026-07-23,PULSE,76.0,bpm,11,
042-S07-005,1,SCREENING,2026-01-13,SYSBP,124.0,mmHg,1,
042-S07-005,2,SCREENING,2026-01-13,DIABP,83.0,mmHg,1,
042-S07-005,3,SCREENING,2026-01-13,PULSE,79.0,bpm,1,
042-S07-005,4,BASELINE,2026-01-25,SYSBP,135.0,mmHg,1,
042-S07-005,5,BASELINE,2026-01-25,DIABP,71.0,mmHg,1,
042-S07-005,6,BASELINE,2026-01-25,PULSE,75.0,bpm,1,
042-S07-005,7,WEEK2,2026-02-13,SYSBP,120.0,mmHg,2,
042-S07-005,8,WEEK2,2026-02-13,DIABP,84.0,mmHg,2,
042-S07-005,9,WEEK2,2026-02-13,PULSE,58.0,bpm,2,
042-S07-005,10,WEEK4,2026-02-21,SYSBP,143.0,mmHg,3,
042-S07-005,11,WEEK4,2026-02-21,DIABP,80.0,mmHg,3,
042-S07-005,12,WEEK4,2026-02-21,PULSE,99.0,bpm,3,
042-S07-005,13,WEEK8,2026-03-24,SYSBP,126.0,mmHg,4,
042-S07-005,14,WEEK8,2026-03-24,DIABP,86.0,mmHg,4,
042-S07-005,15,WEEK8,2026-03-24,PULSE,78.0,bpm,4,
042-S07-005,16,WEEK12,2026-04-21,SYSBP,130.0,mmHg,6,
042-S07-005,17,WEEK12,2026-04-21,DIABP,88.0,mmHg,6,
042-S07-005,18,WEEK12,2026-04-21,PULSE,73.0,bpm,6,
042-S07-005,19,WEEK16,2026-05-16,SYSBP,126.0,mmHg,7,
042-S07-005,20,WEEK16,2026-05-16,DIABP,81.0,mmHg,7,
042-S07-005,21,WEEK16,2026-05-16,PULSE,56.0,bpm,7,
042-S07-005,22,WEEK20,2026-06-16,SYSBP,128.0,mmHg,9,
042-S07-005,23,WEEK20,2026-06-16,DIABP,65.0,mmHg,9,
042-S07-005,24,WEEK20,2026-06-16,PULSE,65.0,bpm,9,
042-S07-005,25,WEEK24,2026-07-13,SYSBP,127.0,mmHg,11,
042-S07-005,26,WEEK24,2026-07-13,DIABP,81.0,mmHg,11,
042-S07-005,27,WEEK24,2026-07-13,PULSE,70.0,bpm,11,
042-S07-005,28,EOS,2026-07-25,SYSBP,107.0,mmHg,11,
042-S07-005,29,EOS,2026-07-25,DIABP,75.0,mmHg,11,
042-S07-005,30,EOS,2026-07-25,PULSE,77.0,bpm,11,
042-S08-005,1,SCREENING,2026-01-03,SYSBP,137.0,mmHg,4,
042-S08-005,2,SCREENING,2026-01-03,DIABP,104.0,mmHg,4,
042-S08-005,3,SCREENING,2026-01-03,PULSE,75.0,bpm,4,
042-S08-005,4,BASELINE,2026-01-18,SYSBP,123.0,mmHg,4,
042-S08-005,5,BASELINE,2026-01-18,DIABP,70.0,mmHg,4,
042-S08-005,6,BASELINE,2026-01-18,PULSE,59.0,bpm,4,
042-S08-005,7,WEEK2,2026-02-10,SYSBP,125.0,mmHg,5,
042-S08-005,8,WEEK2,2026-02-10,DIABP,92.0,mmHg,5,
042-S08-005,9,WEEK2,2026-02-10,PULSE,76.0,bpm,5,
042-S08-005,10,WEEK4,2026-02-14,SYSBP,124.0,mmHg,5,
042-S08-005,11,WEEK4,2026-02-14,DIABP,82.0,mmHg,5,
042-S08-005,12,WEEK4,2026-02-14,PULSE,64.0,bpm,5,
042-S08-005,13,WEEK8,2026-03-06,SYSBP,146.0,mmHg,6,
042-S08-005,14,WEEK8,2026-03-06,DIABP,78.0,mmHg,6,
042-S08-005,15,WEEK8,2026-03-06,PULSE,67.0,bpm,6,
042-S08-005,16,WEEK12,2026-04-17,SYSBP,143.0,mmHg,9,
042-S08-005,17,WEEK12,2026-04-17,DIABP,96.0,mmHg,9,
042-S08-005,18,WEEK12,2026-04-17,PULSE,73.0,bpm,9,
042-S08-005,19,WEEK16,2026-05-08,SYSBP,124.0,mmHg,10,
042-S08-005,20,WEEK16,2026-05-08,DIABP,88.0,mmHg,10,
042-S08-005,21,WEEK16,2026-05-08,PULSE,81.0,bpm,10,
042-S08-005,22,WEEK20,2026-06-05,SYSBP,133.0,mmHg,12,
042-S08-005,23,WEEK20,2026-06-05,DIABP,69.0,mmHg,12,
042-S08-005,24,WEEK20,2026-06-05,PULSE,66.0,bpm,12,
042-S08-005,25,WEEK24,2026-07-07,SYSBP,129.0,mmHg,13,
042-S08-005,26,WEEK24,2026-07-07,DIABP,73.0,mmHg,13,
042-S08-005,27,WEEK24,2026-07-07,PULSE,74.0,bpm,13,
042-S08-005,28,EOS,2026-07-17,SYSBP,111.0,mmHg,14,
042-S08-005,29,EOS,2026-07-17,DIABP,93.0,mmHg,14,
042-S08-005,30,EOS,2026-07-17,PULSE,78.0,bpm,14,
042-S09-005,1,SCREENING,2026-01-13,SYSBP,129.0,mmHg,1,
042-S09-005,2,SCREENING,2026-01-13,DIABP,96.0,mmHg,1,
042-S09-005,3,SCREENING,2026-01-13,PULSE,67.0,bpm,1,
042-S09-005,4,BASELINE,2026-01-26,SYSBP,136.0,mmHg,1,
042-S09-005,5,BASELINE,2026-01-26,DIABP,69.0,mmHg,1,
042-S09-005,6,BASELINE,2026-01-26,PULSE,71.0,bpm,1,
042-S09-005,7,WEEK2,2026-02-12,SYSBP,136.0,mmHg,2,
042-S09-005,8,WEEK2,2026-02-12,DIABP,87.0,mmHg,2,
042-S09-005,9,WEEK2,2026-02-12,PULSE,56.0,bpm,2,
042-S09-005,10,WEEK4,2026-02-25,SYSBP,134.0,mmHg,3,
042-S09-005,11,WEEK4,2026-02-25,DIABP,77.0,mmHg,3,
042-S09-005,12,WEEK4,2026-02-25,PULSE,86.0,bpm,3,
042-S09-005,13,WEEK8,2026-03-24,SYSBP,133.0,mmHg,4,
042-S09-005,14,WEEK8,2026-03-24,DIABP,71.0,mmHg,4,
042-S09-005,15,WEEK8,2026-03-24,PULSE,63.0,bpm,4,
042-S09-005,16,WEEK12,2026-04-23,SYSBP,116.0,mmHg,6,
042-S09-005,17,WEEK12,2026-04-23,DIABP,89.0,mmHg,6,
042-S09-005,18,WEEK12,2026-04-23,PULSE,63.0,bpm,6,
042-S09-005,19,WEEK16,2026-05-20,SYSBP,126.0,mmHg,8,
042-S09-005,20,WEEK16,2026-05-20,DIABP,63.0,mmHg,8,
042-S09-005,21,WEEK16,2026-05-20,PULSE,72.0,bpm,8,
042-S09-005,22,WEEK20,2026-06-16,SYSBP,129.0,mmHg,9,
042-S09-005,23,WEEK20,2026-06-16,DIABP,75.0,mmHg,9,
042-S09-005,24,WEEK20,2026-06-16,PULSE,68.0,bpm,9,
042-S09-005,25,WEEK24,2026-07-14,SYSBP,118.0,mmHg,11,
042-S09-005,26,WEEK24,2026-07-14,DIABP,93.0,mmHg,11,
042-S09-005,27,WEEK24,2026-07-14,PULSE,84.0,bpm,11,
042-S09-005,28,EOS,2026-07-27,SYSBP,122.0,mmHg,11,
042-S09-005,29,EOS,2026-07-27,DIABP,84.0,mmHg,11,
042-S09-005,30,EOS,2026-07-27,PULSE,70.0,bpm,11,
042-S10-005,1,SCREENING,2026-01-19,SYSBP,129.0,mmHg,1,
042-S10-005,2,SCREENING,2026-01-19,DIABP,91.0,mmHg,1,
042-S10-005,3,SCREENING,2026-01-19,PULSE,84.0,bpm,1,
042-S10-005,4,BASELINE,2026-01-31,SYSBP,119.0,mmHg,2,
042-S10-005,5,BASELINE,2026-01-31,DIABP,73.0,mmHg,2,
042-S10-005,6,BASELINE,2026-01-31,PULSE,63.0,bpm,2,
042-S10-005,7,WEEK2,2026-02-13,SYSBP,127.0,mmHg,2,
042-S10-005,8,WEEK2,2026-02-13,DIABP,77.0,mmHg,2,
042-S10-005,9,WEEK2,2026-02-13,PULSE,70.0,bpm,2,
042-S10-005,10,WEEK4,2026-02-26,SYSBP,113.0,mmHg,3,
042-S10-005,11,WEEK4,2026-02-26,DIABP,67.0,mmHg,3,
042-S10-005,12,WEEK4,2026-02-26,PULSE,69.0,bpm,3,
042-S10-005,13,WEEK8,2026-03-28,SYSBP,129.0,mmHg,5,
042-S10-005,14,WEEK8,2026-03-28,DIABP,78.0,mmHg,5,
042-S10-005,15,WEEK8,2026-03-28,PULSE,85.0,bpm,5,
042-S10-005,16,WEEK12,2026-04-25,SYSBP,132.0,mmHg,6,
042-S10-005,17,WEEK12,2026-04-25,DIABP,88.0,mmHg,6,
042-S10-005,18,WEEK12,2026-04-25,PULSE,76.0,bpm,6,
042-S10-005,19,WEEK16,2026-05-21,SYSBP,138.0,mmHg,8,
042-S10-005,20,WEEK16,2026-05-21,DIABP,73.0,mmHg,8,
042-S10-005,21,WEEK16,2026-05-21,PULSE,86.0,bpm,8,
042-S10-005,22,WEEK20,2026-06-19,SYSBP,116.0,mmHg,9,
042-S10-005,23,WEEK20,2026-06-19,DIABP,84.0,mmHg,9,
042-S10-005,24,WEEK20,2026-06-19,PULSE,89.0,bpm,9,
042-S10-005,25,WEEK24,2026-07-16,SYSBP,120.0,mmHg,11,
042-S10-005,26,WEEK24,2026-07-16,DIABP,86.0,mmHg,11,
042-S10-005,27,WEEK24,2026-07-16,PULSE,81.0,bpm,11,
042-S10-005,28,EOS,2026-08-01,SYSBP,139.0,mmHg,12,
042-S10-005,29,EOS,2026-08-01,DIABP,87.0,mmHg,12,
042-S10-005,30,EOS,2026-08-01,PULSE,82.0,bpm,12,
042-S11-005,1,SCREENING,2025-12-30,SYSBP,128.0,mmHg,6,
042-S11-005,2,SCREENING,2025-12-30,DIABP,80.0,mmHg,6,
042-S11-005,3,SCREENING,2025-12-30,PULSE,71.0,bpm,6,
042-S11-005,4,BASELINE,2026-01-13,SYSBP,129.0,mmHg,6,
042-S11-005,5,BASELINE,2026-01-13,DIABP,80.0,mmHg,6,
042-S11-005,6,BASELINE,2026-01-13,PULSE,71.0,bpm,6,
042-S11-005,7,WEEK2,2026-01-27,SYSBP,128.0,mmHg,6,
042-S11-005,8,WEEK2,2026-01-27,DIABP,80.0,mmHg,6,
042-S11-005,9,WEEK2,2026-01-27,PULSE,72.0,bpm,6,
042-S11-005,10,WEEK4,2026-02-10,SYSBP,128.0,mmHg,6,
042-S11-005,11,WEEK4,2026-02-10,DIABP,79.0,mmHg,6,
042-S11-005,12,WEEK4,2026-02-10,PULSE,72.0,bpm,6,
042-S11-005,13,WEEK8,2026-03-10,SYSBP,127.0,mmHg,6,
042-S11-005,14,WEEK8,2026-03-10,DIABP,80.0,mmHg,6,
042-S11-005,15,WEEK8,2026-03-10,PULSE,71.0,bpm,6,
042-S11-005,16,WEEK12,2026-04-07,SYSBP,128.0,mmHg,6,
042-S11-005,17,WEEK12,2026-04-07,DIABP,79.0,mmHg,6,
042-S11-005,18,WEEK12,2026-04-07,PULSE,72.0,bpm,6,
042-S11-005,19,WEEK16,2026-05-05,SYSBP,127.0,mmHg,7,
042-S11-005,20,WEEK16,2026-05-05,DIABP,79.0,mmHg,7,
042-S11-005,21,WEEK16,2026-05-05,PULSE,72.0,bpm,7,
042-S11-005,22,WEEK20,2026-06-02,SYSBP,129.0,mmHg,8,
042-S11-005,23,WEEK20,2026-06-02,DIABP,80.0,mmHg,8,
042-S11-005,24,WEEK20,2026-06-02,PULSE,72.0,bpm,8,
042-S11-005,25,WEEK24,2026-06-30,SYSBP,128.0,mmHg,10,
042-S11-005,26,WEEK24,2026-06-30,DIABP,80.0,mmHg,10,
042-S11-005,27,WEEK24,2026-06-30,PULSE,71.0,bpm,10,
042-S11-005,28,EOS,2026-07-14,SYSBP,128.0,mmHg,11,
042-S11-005,29,EOS,2026-07-14,DIABP,80.0,mmHg,11,
042-S11-005,30,EOS,2026-07-14,PULSE,72.0,bpm,11,
042-S12-005,1,SCREENING,2026-01-13,SYSBP,120.0,mmHg,1,
042-S12-005,2,SCREENING,2026-01-13,DIABP,99.0,mmHg,1,
042-S12-005,3,SCREENING,2026-01-13,PULSE,61.0,bpm,1,
042-S12-005,4,BASELINE,2026-01-26,SYSBP,145.0,mmHg,1,
042-S12-005,5,BASELINE,2026-01-26,DIABP,90.0,mmHg,1,
042-S12-005,6,BASELINE,2026-01-26,PULSE,66.0,bpm,1,
042-S12-005,7,WEEK2,2026-02-12,SYSBP,121.0,mmHg,2,
042-S12-005,8,WEEK2,2026-02-12,DIABP,62.0,mmHg,2,
042-S12-005,9,WEEK2,2026-02-12,PULSE,85.0,bpm,2,
042-S12-005,10,WEEK4,2026-02-24,SYSBP,124.0,mmHg,3,
042-S12-005,11,WEEK4,2026-02-24,DIABP,67.0,mmHg,3,
042-S12-005,12,WEEK4,2026-02-24,PULSE,73.0,bpm,3,
042-S12-005,13,WEEK8,2026-03-25,SYSBP,132.0,mmHg,5,
042-S12-005,14,WEEK8,2026-03-25,DIABP,79.0,mmHg,5,
042-S12-005,15,WEEK8,2026-03-25,PULSE,59.0,bpm,5,
042-S12-005,16,WEEK12,2026-04-20,SYSBP,136.0,mmHg,6,
042-S12-005,17,WEEK12,2026-04-20,DIABP,80.0,mmHg,6,
042-S12-005,18,WEEK12,2026-04-20,PULSE,68.0,bpm,6,
042-S12-005,19,WEEK16,2026-05-21,SYSBP,99.0,mmHg,8,
042-S12-005,20,WEEK16,2026-05-21,DIABP,78.0,mmHg,8,
042-S12-005,21,WEEK16,2026-05-21,PULSE,59.0,bpm,8,
042-S12-005,22,WEEK20,2026-06-16,SYSBP,131.0,mmHg,9,
042-S12-005,23,WEEK20,2026-06-16,DIABP,82.0,mmHg,9,
042-S12-005,24,WEEK20,2026-06-16,PULSE,68.0,bpm,9,
042-S12-005,25,WEEK24,2026-07-14,SYSBP,138.0,mmHg,11,
042-S12-005,26,WEEK24,2026-07-14,DIABP,90.0,mmHg,11,
042-S12-005,27,WEEK24,2026-07-14,PULSE,77.0,bpm,11,
042-S12-005,28,EOS,2026-07-27,SYSBP,114.0,mmHg,11,
042-S12-005,29,EOS,2026-07-27,DIABP,83.0,mmHg,11,
042-S12-005,30,EOS,2026-07-27,PULSE,57.0,bpm,11,
042-S01-006,1,SCREENING,2026-01-03,SYSBP,124.0,mmHg,1,
042-S01-006,2,SCREENING,2026-01-03,DIABP,68.0,mmHg,1,
042-S01-006,3,SCREENING,2026-01-03,PULSE,83.0,bpm,1,
042-S01-006,4,BASELINE,2026-01-19,SYSBP,130.0,mmHg,1,
042-S01-006,5,BASELINE,2026-01-19,DIABP,94.0,mmHg,1,
042-S01-006,6,BASELINE,2026-01-19,PULSE,52.0,bpm,1,
042-S01-006,7,WEEK2,2026-02-03,SYSBP,132.0,mmHg,2,
042-S01-006,8,WEEK2,2026-02-03,DIABP,77.0,mmHg,2,
042-S01-006,9,WEEK2,2026-02-03,PULSE,78.0,bpm,2,
042-S01-006,10,WEEK4,2026-02-14,SYSBP,137.0,mmHg,2,
042-S01-006,11,WEEK4,2026-02-14,DIABP,83.0,mmHg,2,
042-S01-006,12,WEEK4,2026-02-14,PULSE,71.0,bpm,2,
042-S01-006,13,WEEK8,2026-03-14,SYSBP,131.0,mmHg,4,
042-S01-006,14,WEEK8,2026-03-14,DIABP,83.0,mmHg,4,
042-S01-006,15,WEEK8,2026-03-14,PULSE,69.0,bpm,4,
042-S01-006,16,WEEK12,2026-04-12,SYSBP,121.0,mmHg,6,
042-S01-006,17,WEEK12,2026-04-12,DIABP,76.0,mmHg,6,
042-S01-006,18,WEEK12,2026-04-12,PULSE,74.0,bpm,6,
042-S01-006,19,WEEK16,2026-05-11,SYSBP,118.0,mmHg,7,
042-S01-006,20,WEEK16,2026-05-11,DIABP,78.0,mmHg,7,
042-S01-006,21,WEEK16,2026-05-11,PULSE,90.0,bpm,7,
042-S01-006,22,WEEK20,2026-06-08,SYSBP,138.0,mmHg,9,
042-S01-006,23,WEEK20,2026-06-08,DIABP,77.0,mmHg,9,
042-S01-006,24,WEEK20,2026-06-08,PULSE,65.0,bpm,9,
042-S01-006,25,WEEK24,2026-07-05,SYSBP,130.0,mmHg,10,
042-S01-006,26,WEEK24,2026-07-05,DIABP,87.0,mmHg,10,
042-S01-006,27,WEEK24,2026-07-05,PULSE,85.0,bpm,10,
042-S01-006,28,EOS,2026-07-21,SYSBP,144.0,mmHg,11,
042-S01-006,29,EOS,2026-07-21,DIABP,96.0,mmHg,11,
042-S01-006,30,EOS,2026-07-21,PULSE,85.0,bpm,11,
042-S02-006,1,SCREENING,2026-01-05,SYSBP,128.0,mmHg,1,
042-S02-006,2,SCREENING,2026-01-05,DIABP,83.0,mmHg,1,
042-S02-006,3,SCREENING,2026-01-05,PULSE,71.0,bpm,1,
042-S02-006,4,BASELINE,2026-01-18,SYSBP,130.0,mmHg,1,
042-S02-006,5,BASELINE,2026-01-18,DIABP,77.0,mmHg,1,
042-S02-006,6,BASELINE,2026-01-18,PULSE,74.0,bpm,1,
042-S02-006,7,WEEK2,2026-02-01,SYSBP,118.0,mmHg,2,
042-S02-006,8,WEEK2,2026-02-01,DIABP,76.0,mmHg,2,
042-S02-006,9,WEEK2,2026-02-01,PULSE,75.0,bpm,2,
042-S02-006,10,WEEK4,2026-02-18,SYSBP,134.0,mmHg,3,
042-S02-006,11,WEEK4,2026-02-18,DIABP,86.0,mmHg,3,
042-S02-006,12,WEEK4,2026-02-18,PULSE,70.0,bpm,3,
042-S02-006,13,WEEK8,2026-03-18,SYSBP,137.0,mmHg,4,
042-S02-006,14,WEEK8,2026-03-18,DIABP,64.0,mmHg,4,
042-S02-006,15,WEEK8,2026-03-18,PULSE,78.0,bpm,4,
042-S02-006,16,WEEK12,2026-04-14,SYSBP,142.0,mmHg,6,
042-S02-006,17,WEEK12,2026-04-14,DIABP,63.0,mmHg,6,
042-S02-006,18,WEEK12,2026-04-14,PULSE,79.0,bpm,6,
042-S02-006,19,WEEK16,2026-05-12,SYSBP,108.0,mmHg,7,
042-S02-006,20,WEEK16,2026-05-12,DIABP,86.0,mmHg,7,
042-S02-006,21,WEEK16,2026-05-12,PULSE,92.0,bpm,7,
042-S02-006,22,WEEK20,2026-06-06,SYSBP,114.0,mmHg,9,
042-S02-006,23,WEEK20,2026-06-06,DIABP,82.0,mmHg,9,
042-S02-006,24,WEEK20,2026-06-06,PULSE,74.0,bpm,9,
042-S02-006,25,WEEK24,2026-07-17,SYSBP,117.0,mmHg,11,
042-S02-006,26,WEEK24,2026-07-17,DIABP,60.0,mmHg,11,
042-S02-006,27,WEEK24,2026-07-17,PULSE,77.0,bpm,11,
042-S02-006,28,EOS,2026-07-26,SYSBP,123.0,mmHg,11,
042-S02-006,29,EOS,2026-07-26,DIABP,73.0,mmHg,11,
042-S02-006,30,EOS,2026-07-26,PULSE,67.0,bpm,11,
042-S03-006,1,SCREENING,07-JAN-2026,SYSBP,142.0,mmHg,1,
042-S03-006,2,SCREENING,07-JAN-2026,DIABP,75.0,mmHg,1,
042-S03-006,3,SCREENING,07-JAN-2026,PULSE,66.0,bpm,1,
042-S03-006,4,BASELINE,23-JAN-2026,SYSBP,141.0,mmHg,1,
042-S03-006,5,BASELINE,23-JAN-2026,DIABP,75.0,mmHg,1,
042-S03-006,6,BASELINE,23-JAN-2026,PULSE,58.0,bpm,1,
042-S03-006,7,WEEK2,03-FEB-2026,SYSBP,126.0,mmHg,2,
042-S03-006,8,WEEK2,03-FEB-2026,DIABP,86.0,mmHg,2,
042-S03-006,9,WEEK2,03-FEB-2026,PULSE,78.0,bpm,2,
042-S03-006,10,WEEK4,17-FEB-2026,SYSBP,130.0,mmHg,3,
042-S03-006,11,WEEK4,17-FEB-2026,DIABP,78.0,mmHg,3,
042-S03-006,12,WEEK4,17-FEB-2026,PULSE,72.0,bpm,3,
042-S03-006,13,WEEK8,19-MAR-2026,SYSBP,128.0,mmHg,4,
042-S03-006,14,WEEK8,19-MAR-2026,DIABP,76.0,mmHg,4,
042-S03-006,15,WEEK8,19-MAR-2026,PULSE,72.0,bpm,4,
042-S03-006,16,WEEK12,15-APR-2026,SYSBP,117.0,mmHg,6,
042-S03-006,17,WEEK12,15-APR-2026,DIABP,73.0,mmHg,6,
042-S03-006,18,WEEK12,15-APR-2026,PULSE,83.0,bpm,6,
042-S03-006,19,WEEK16,12-MAY-2026,SYSBP,126.0,mmHg,7,
042-S03-006,20,WEEK16,12-MAY-2026,DIABP,84.0,mmHg,7,
042-S03-006,21,WEEK16,12-MAY-2026,PULSE,82.0,bpm,7,
042-S03-006,22,WEEK20,10-JUN-2026,SYSBP,132.0,mmHg,9,
042-S03-006,23,WEEK20,10-JUN-2026,DIABP,79.0,mmHg,9,
042-S03-006,24,WEEK20,10-JUN-2026,PULSE,74.0,bpm,9,
042-S03-006,25,WEEK24,11-JUL-2026,SYSBP,126.0,mmHg,11,
042-S03-006,26,WEEK24,11-JUL-2026,DIABP,102.0,mmHg,11,
042-S03-006,27,WEEK24,11-JUL-2026,PULSE,66.0,bpm,11,
042-S03-006,28,EOS,22-JUL-2026,SYSBP,122.0,mmHg,11,
042-S03-006,29,EOS,22-JUL-2026,DIABP,78.0,mmHg,11,
042-S03-006,30,EOS,22-JUL-2026,PULSE,75.0,bpm,11,
042-S04-006,1,SCREENING,2025-12-31,SYSBP,106.0,mmHg,1,
042-S04-006,2,SCREENING,2025-12-31,DIABP,83.0,mmHg,1,
042-S04-006,3,SCREENING,2025-12-31,PULSE,63.0,bpm,1,
042-S04-006,4,BASELINE,2026-01-13,SYSBP,135.0,mmHg,1,
042-S04-006,5,BASELINE,2026-01-13,DIABP,88.0,mmHg,1,
042-S04-006,6,BASELINE,2026-01-13,PULSE,71.0,bpm,1,
042-S04-006,7,WEEK2,2026-01-30,SYSBP,119.0,mmHg,2,
042-S04-006,8,WEEK2,2026-01-30,DIABP,57.0,mmHg,2,
042-S04-006,9,WEEK2,2026-01-30,PULSE,60.0,bpm,2,
042-S04-006,10,WEEK4,2026-02-09,SYSBP,118.0,mmHg,2,
042-S04-006,11,WEEK4,2026-02-09,DIABP,79.0,mmHg,2,
042-S04-006,12,WEEK4,2026-02-09,PULSE,81.0,bpm,2,
042-S04-006,13,WEEK8,2026-03-10,SYSBP,124.0,mmHg,4,
042-S04-006,14,WEEK8,2026-03-10,DIABP,75.0,mmHg,4,
042-S04-006,15,WEEK8,2026-03-10,PULSE,76.0,bpm,4,
042-S04-006,16,WEEK12,2026-04-07,SYSBP,143.0,mmHg,5,
042-S04-006,17,WEEK12,2026-04-07,DIABP,87.0,mmHg,5,
042-S04-006,18,WEEK12,2026-04-07,PULSE,72.0,bpm,5,
042-S04-006,19,WEEK16,2026-05-08,SYSBP,144.0,mmHg,7,
042-S04-006,20,WEEK16,2026-05-08,DIABP,86.0,mmHg,7,
042-S04-006,21,WEEK16,2026-05-08,PULSE,70.0,bpm,7,
042-S04-006,22,WEEK20,2026-06-03,SYSBP,128.0,mmHg,8,
042-S04-006,23,WEEK20,2026-06-03,DIABP,59.0,mmHg,8,
042-S04-006,24,WEEK20,2026-06-03,PULSE,68.0,bpm,8,
042-S04-006,25,WEEK24,2026-06-29,SYSBP,132.0,mmHg,10,
042-S04-006,26,WEEK24,2026-06-29,DIABP,75.0,mmHg,10,
042-S04-006,27,WEEK24,2026-06-29,PULSE,67.0,bpm,10,
042-S04-006,28,EOS,2026-07-14,SYSBP,137.0,mmHg,11,
042-S04-006,29,EOS,2026-07-14,DIABP,68.0,mmHg,11,
042-S04-006,30,EOS,2026-07-14,PULSE,87.0,bpm,11,
042-S05-006,1,SCREENING,2026-01-08,SYSBP,124.0,mmHg,1,
042-S05-006,2,SCREENING,2026-01-08,DIABP,86.0,mmHg,1,
042-S05-006,3,SCREENING,2026-01-08,PULSE,78.0,bpm,1,
042-S05-006,4,BASELINE,2026-01-20,SYSBP,136.0,mmHg,1,
042-S05-006,5,BASELINE,2026-01-20,DIABP,98.0,mmHg,1,
042-S05-006,6,BASELINE,2026-01-20,PULSE,82.0,bpm,1,
042-S05-006,7,WEEK2,2026-02-05,SYSBP,128.0,mmHg,2,
042-S05-006,8,WEEK2,2026-02-05,DIABP,73.0,mmHg,2,
042-S05-006,9,WEEK2,2026-02-05,PULSE,63.0,bpm,2,
042-S05-006,10,WEEK4,2026-02-17,SYSBP,123.0,mmHg,3,
042-S05-006,11,WEEK4,2026-02-17,DIABP,80.0,mmHg,3,
042-S05-006,12,WEEK4,2026-02-17,PULSE,73.0,bpm,3,
042-S05-006,13,WEEK8,2026-03-17,SYSBP,130.0,mmHg,4,
042-S05-006,14,WEEK8,2026-03-17,DIABP,84.0,mmHg,4,
042-S05-006,15,WEEK8,2026-03-17,PULSE,72.0,bpm,4,
042-S05-006,16,WEEK12,2026-04-13,SYSBP,125.0,mmHg,6,
042-S05-006,17,WEEK12,2026-04-13,DIABP,65.0,mmHg,6,
042-S05-006,18,WEEK12,2026-04-13,PULSE,72.0,bpm,6,
042-S05-006,19,WEEK16,2026-05-14,SYSBP,131.0,mmHg,7,
042-S05-006,20,WEEK16,2026-05-14,DIABP,95.0,mmHg,7,
042-S05-006,21,WEEK16,2026-05-14,PULSE,72.0,bpm,7,
042-S05-006,22,WEEK20,2026-06-12,SYSBP,149.0,mmHg,9,
042-S05-006,23,WEEK20,2026-06-12,DIABP,87.0,mmHg,9,
042-S05-006,24,WEEK20,2026-06-12,PULSE,88.0,bpm,9,
042-S05-006,25,WEEK24,2026-07-08,SYSBP,124.0,mmHg,10,
042-S05-006,26,WEEK24,2026-07-08,DIABP,90.0,mmHg,10,
042-S05-006,27,WEEK24,2026-07-08,PULSE,76.0,bpm,10,
042-S05-006,28,EOS,2026-07-18,SYSBP,118.0,mmHg,11,
042-S05-006,29,EOS,2026-07-18,DIABP,84.0,mmHg,11,
042-S05-006,30,EOS,2026-07-18,PULSE,66.0,bpm,11,
042-S06-006,1,SCREENING,2026-01-14,SYSBP,135.0,mmHg,1,
042-S06-006,2,SCREENING,2026-01-14,DIABP,78.0,mmHg,1,
042-S06-006,3,SCREENING,2026-01-14,PULSE,54.0,bpm,1,
042-S06-006,4,BASELINE,2026-01-29,SYSBP,129.0,mmHg,1,
042-S06-006,5,BASELINE,2026-01-29,DIABP,66.0,mmHg,1,
042-S06-006,6,BASELINE,2026-01-29,PULSE,72.0,bpm,1,
042-S06-006,7,WEEK2,2026-02-13,SYSBP,128.0,mmHg,2,
042-S06-006,8,WEEK2,2026-02-13,DIABP,71.0,mmHg,2,
042-S06-006,9,WEEK2,2026-02-13,PULSE,70.0,bpm,2,
042-S06-006,10,WEEK4,2026-02-25,SYSBP,134.0,mmHg,3,
042-S06-006,11,WEEK4,2026-02-25,DIABP,101.0,mmHg,3,
042-S06-006,12,WEEK4,2026-02-25,PULSE,72.0,bpm,3,
042-S06-006,13,WEEK8,2026-03-27,SYSBP,148.0,mmHg,5,
042-S06-006,14,WEEK8,2026-03-27,DIABP,93.0,mmHg,5,
042-S06-006,15,WEEK8,2026-03-27,PULSE,77.0,bpm,5,
042-S06-006,16,WEEK12,2026-04-14,SYSBP,130.0,mmHg,6,
042-S06-006,17,WEEK12,2026-04-14,DIABP,81.0,mmHg,6,
042-S06-006,18,WEEK12,2026-04-14,PULSE,92.0,bpm,6,
042-S06-006,19,WEEK16,2026-05-20,SYSBP,122.0,mmHg,8,
042-S06-006,20,WEEK16,2026-05-20,DIABP,80.0,mmHg,8,
042-S06-006,21,WEEK16,2026-05-20,PULSE,70.0,bpm,8,
042-S06-006,22,WEEK20,2026-06-18,SYSBP,131.0,mmHg,9,
042-S06-006,23,WEEK20,2026-06-18,DIABP,84.0,mmHg,9,
042-S06-006,24,WEEK20,2026-06-18,PULSE,83.0,bpm,9,
042-S06-006,25,WEEK24,2026-07-14,SYSBP,123.0,mmHg,11,
042-S06-006,26,WEEK24,2026-07-14,DIABP,93.0,mmHg,11,
042-S06-006,27,WEEK24,2026-07-14,PULSE,82.0,bpm,11,
042-S06-006,28,EOS,2026-07-30,SYSBP,137.0,mmHg,12,
042-S06-006,29,EOS,2026-07-30,DIABP,78.0,mmHg,12,
042-S06-006,30,EOS,2026-07-30,PULSE,64.0,bpm,12,
042-S07-006,1,SCREENING,2026-01-19,SYSBP,140.0,mmHg,1,
042-S07-006,2,SCREENING,2026-01-19,DIABP,77.0,mmHg,1,
042-S07-006,3,SCREENING,2026-01-19,PULSE,64.0,bpm,1,
042-S07-006,4,BASELINE,2026-02-01,SYSBP,139.0,mmHg,2,
042-S07-006,5,BASELINE,2026-02-01,DIABP,76.0,mmHg,2,
042-S07-006,6,BASELINE,2026-02-01,PULSE,84.0,bpm,2,
042-S07-006,7,WEEK2,2026-02-12,SYSBP,119.0,mmHg,2,
042-S07-006,8,WEEK2,2026-02-12,DIABP,77.0,mmHg,2,
042-S07-006,9,WEEK2,2026-02-12,PULSE,50.0,bpm,2,
042-S07-006,10,WEEK4,2026-02-28,SYSBP,140.0,mmHg,3,
042-S07-006,11,WEEK4,2026-02-28,DIABP,73.0,mmHg,3,
042-S07-006,12,WEEK4,2026-02-28,PULSE,75.0,bpm,3,
042-S07-006,13,WEEK8,2026-03-24,SYSBP,123.0,mmHg,4,
042-S07-006,14,WEEK8,2026-03-24,DIABP,68.0,mmHg,4,
042-S07-006,15,WEEK8,2026-03-24,PULSE,77.0,bpm,4,
042-S07-006,16,WEEK12,2026-04-21,SYSBP,116.0,mmHg,6,
042-S07-006,17,WEEK12,2026-04-21,DIABP,70.0,mmHg,6,
042-S07-006,18,WEEK12,2026-04-21,PULSE,70.0,bpm,6,
042-S07-006,19,WEEK16,2026-05-22,SYSBP,143.0,mmHg,8,
042-S07-006,20,WEEK16,2026-05-22,DIABP,79.0,mmHg,8,
042-S07-006,21,WEEK16,2026-05-22,PULSE,67.0,bpm,8,
042-S07-006,22,WEEK20,2026-06-21,SYSBP,130.0,mmHg,9,
042-S07-006,23,WEEK20,2026-06-21,DIABP,69.0,mmHg,9,
042-S07-006,24,WEEK20,2026-06-21,PULSE,64.0,bpm,9,
042-S07-006,25,WEEK24,2026-07-23,SYSBP,113.0,mmHg,11,
042-S07-006,26,WEEK24,2026-07-23,DIABP,78.0,mmHg,11,
042-S07-006,27,WEEK24,2026-07-23,PULSE,63.0,bpm,11,
042-S07-006,28,EOS,2026-08-03,SYSBP,133.0,mmHg,12,
042-S07-006,29,EOS,2026-08-03,DIABP,85.0,mmHg,12,
042-S07-006,30,EOS,2026-08-03,PULSE,68.0,bpm,12,
042-S08-006,1,SCREENING,2026-01-01,SYSBP,125.0,mmHg,4,
042-S08-006,2,SCREENING,2026-01-01,DIABP,91.0,mmHg,4,
042-S08-006,3,SCREENING,2026-01-01,PULSE,66.0,bpm,4,
042-S08-006,4,BASELINE,2026-01-13,SYSBP,130.0,mmHg,4,
042-S08-006,5,BASELINE,2026-01-13,DIABP,98.0,mmHg,4,
042-S08-006,6,BASELINE,2026-01-13,PULSE,65.0,bpm,4,
042-S08-006,7,WEEK2,2026-01-28,SYSBP,139.0,mmHg,4,
042-S08-006,8,WEEK2,2026-01-28,DIABP,80.0,mmHg,4,
042-S08-006,9,WEEK2,2026-01-28,PULSE,70.0,bpm,4,
042-S08-006,10,WEEK4,2026-02-11,SYSBP,140.0,mmHg,5,
042-S08-006,11,WEEK4,2026-02-11,DIABP,78.0,mmHg,5,
042-S08-006,12,WEEK4,2026-02-11,PULSE,65.0,bpm,5,
042-S08-006,13,WEEK8,2026-03-14,SYSBP,126.0,mmHg,7,
042-S08-006,14,WEEK8,2026-03-14,DIABP,66.0,mmHg,7,
042-S08-006,15,WEEK8,2026-03-14,PULSE,76.0,bpm,7,
042-S08-006,16,WEEK12,2026-04-07,SYSBP,124.0,mmHg,8,
042-S08-006,17,WEEK12,2026-04-07,DIABP,71.0,mmHg,8,
042-S08-006,18,WEEK12,2026-04-07,PULSE,76.0,bpm,8,
042-S08-006,19,WEEK16,2026-05-06,SYSBP,126.0,mmHg,10,
042-S08-006,20,WEEK16,2026-05-06,DIABP,89.0,mmHg,10,
042-S08-006,21,WEEK16,2026-05-06,PULSE,76.0,bpm,10,
042-S08-006,22,WEEK20,2026-06-04,SYSBP,124.0,mmHg,11,
042-S08-006,23,WEEK20,2026-06-04,DIABP,82.0,mmHg,11,
042-S08-006,24,WEEK20,2026-06-04,PULSE,75.0,bpm,11,
042-S08-006,25,WEEK24,2026-07-03,SYSBP,133.0,mmHg,13,
042-S08-006,26,WEEK24,2026-07-03,DIABP,76.0,mmHg,13,
042-S08-006,27,WEEK24,2026-07-03,PULSE,69.0,bpm,13,
042-S08-006,28,EOS,2026-07-18,SYSBP,126.0,mmHg,14,
042-S08-006,29,EOS,2026-07-18,DIABP,66.0,mmHg,14,
042-S08-006,30,EOS,2026-07-18,PULSE,60.0,bpm,14,
042-S09-006,1,SCREENING,2025-12-30,SYSBP,133.0,mmHg,1,
042-S09-006,2,SCREENING,2025-12-30,DIABP,85.0,mmHg,1,
042-S09-006,3,SCREENING,2025-12-30,PULSE,64.0,bpm,1,
042-S09-006,4,BASELINE,2026-01-13,SYSBP,141.0,mmHg,1,
042-S09-006,5,BASELINE,2026-01-13,DIABP,89.0,mmHg,1,
042-S09-006,6,BASELINE,2026-01-13,PULSE,67.0,bpm,1,
042-S09-006,7,WEEK2,2026-01-27,SYSBP,116.0,mmHg,1,
042-S09-006,8,WEEK2,2026-01-27,DIABP,74.0,mmHg,1,
042-S09-006,9,WEEK2,2026-01-27,PULSE,78.0,bpm,1,
042-S09-006,10,WEEK4,2026-02-10,SYSBP,140.0,mmHg,2,
042-S09-006,11,WEEK4,2026-02-10,DIABP,76.0,mmHg,2,
042-S09-006,12,WEEK4,2026-02-10,PULSE,85.0,bpm,2,
042-S09-006,13,WEEK8,2026-03-10,SYSBP,126.0,mmHg,4,
042-S09-006,14,WEEK8,2026-03-10,DIABP,75.0,mmHg,4,
042-S09-006,15,WEEK8,2026-03-10,PULSE,69.0,bpm,4,
042-S09-006,16,WEEK12,2026-04-10,SYSBP,127.0,mmHg,5,
042-S09-006,17,WEEK12,2026-04-10,DIABP,87.0,mmHg,5,
042-S09-006,18,WEEK12,2026-04-10,PULSE,75.0,bpm,5,
042-S09-006,19,WEEK16,2026-05-04,SYSBP,120.0,mmHg,7,
042-S09-006,20,WEEK16,2026-05-04,DIABP,69.0,mmHg,7,
042-S09-006,21,WEEK16,2026-05-04,PULSE,73.0,bpm,7,
042-S09-006,22,WEEK20,2026-06-02,SYSBP,132.0,mmHg,8,
042-S09-006,23,WEEK20,2026-06-02,DIABP,89.0,mmHg,8,
042-S09-006,24,WEEK20,2026-06-02,PULSE,76.0,bpm,8,
042-S09-006,25,WEEK24,2026-06-30,SYSBP,130.0,mmHg,10,
042-S09-006,26,WEEK24,2026-06-30,DIABP,66.0,mmHg,10,
042-S09-006,27,WEEK24,2026-06-30,PULSE,81.0,bpm,10,
042-S09-006,28,EOS,2026-07-13,SYSBP,123.0,mmHg,11,
042-S09-006,29,EOS,2026-07-13,DIABP,54.0,mmHg,11,
042-S09-006,30,EOS,2026-07-13,PULSE,67.0,bpm,11,
042-S10-006,1,SCREENING,2026-01-06,SYSBP,115.0,mmHg,1,
042-S10-006,2,SCREENING,2026-01-06,DIABP,73.0,mmHg,1,
042-S10-006,3,SCREENING,2026-01-06,PULSE,70.0,bpm,1,
042-S10-006,4,BASELINE,2026-01-21,SYSBP,125.0,mmHg,1,
042-S10-006,5,BASELINE,2026-01-21,DIABP,80.0,mmHg,1,
042-S10-006,6,BASELINE,2026-01-21,PULSE,75.0,bpm,1,
042-S10-006,7,WEEK2,2026-02-01,SYSBP,133.0,mmHg,2,
042-S10-006,8,WEEK2,2026-02-01,DIABP,93.0,mmHg,2,
042-S10-006,9,WEEK2,2026-02-01,PULSE,77.0,bpm,2,
042-S10-006,10,WEEK4,2026-02-18,SYSBP,134.0,mmHg,3,
042-S10-006,11,WEEK4,2026-02-18,DIABP,78.0,mmHg,3,
042-S10-006,12,WEEK4,2026-02-18,PULSE,64.0,bpm,3,
042-S10-006,13,WEEK8,2026-03-19,SYSBP,134.0,mmHg,4,
042-S10-006,14,WEEK8,2026-03-19,DIABP,95.0,mmHg,4,
042-S10-006,15,WEEK8,2026-03-19,PULSE,70.0,bpm,4,
042-S10-006,16,WEEK12,2026-04-16,SYSBP,130.0,mmHg,6,
042-S10-006,17,WEEK12,2026-04-16,DIABP,66.0,mmHg,6,
042-S10-006,18,WEEK12,2026-04-16,PULSE,64.0,bpm,6,
042-S10-006,19,WEEK16,2026-05-14,SYSBP,133.0,mmHg,7,
042-S10-006,20,WEEK16,2026-05-14,DIABP,103.0,mmHg,7,
042-S10-006,21,WEEK16,2026-05-14,PULSE,75.0,bpm,7,
042-S10-006,22,WEEK20,2026-06-11,SYSBP,132.0,mmHg,9,
042-S10-006,23,WEEK20,2026-06-11,DIABP,91.0,mmHg,9,
042-S10-006,24,WEEK20,2026-06-11,PULSE,68.0,bpm,9,
042-S10-006,25,WEEK24,2026-07-06,SYSBP,145.0,mmHg,10,
042-S10-006,26,WEEK24,2026-07-06,DIABP,76.0,mmHg,10,
042-S10-006,27,WEEK24,2026-07-06,PULSE,75.0,bpm,10,
042-S10-006,28,EOS,2026-07-17,SYSBP,121.0,mmHg,11,
042-S10-006,29,EOS,2026-07-17,DIABP,72.0,mmHg,11,
042-S10-006,30,EOS,2026-07-17,PULSE,70.0,bpm,11,
042-S11-006,1,SCREENING,2025-12-30,SYSBP,129.0,mmHg,6,
042-S11-006,2,SCREENING,2025-12-30,DIABP,80.0,mmHg,6,
042-S11-006,3,SCREENING,2025-12-30,PULSE,73.0,bpm,6,
042-S11-006,4,BASELINE,2026-01-13,SYSBP,128.0,mmHg,6,
042-S11-006,5,BASELINE,2026-01-13,DIABP,80.0,mmHg,6,
042-S11-006,6,BASELINE,2026-01-13,PULSE,72.0,bpm,6,
042-S11-006,7,WEEK2,2026-01-27,SYSBP,128.0,mmHg,6,
042-S11-006,8,WEEK2,2026-01-27,DIABP,81.0,mmHg,6,
042-S11-006,9,WEEK2,2026-01-27,PULSE,72.0,bpm,6,
042-S11-006,10,WEEK4,2026-02-10,SYSBP,128.0,mmHg,6,
042-S11-006,11,WEEK4,2026-02-10,DIABP,80.0,mmHg,6,
042-S11-006,12,WEEK4,2026-02-10,PULSE,72.0,bpm,6,
042-S11-006,13,WEEK8,2026-03-10,SYSBP,127.0,mmHg,6,
042-S11-006,14,WEEK8,2026-03-10,DIABP,81.0,mmHg,6,
042-S11-006,15,WEEK8,2026-03-10,PULSE,73.0,bpm,6,
042-S11-006,16,WEEK12,2026-04-07,SYSBP,129.0,mmHg,6,
042-S11-006,17,WEEK12,2026-04-07,DIABP,80.0,mmHg,6,
042-S11-006,18,WEEK12,2026-04-07,PULSE,72.0,bpm,6,
042-S11-006,19,WEEK16,2026-05-05,SYSBP,129.0,mmHg,7,
042-S11-006,20,WEEK16,2026-05-05,DIABP,79.0,mmHg,7,
042-S11-006,21,WEEK16,2026-05-05,PULSE,73.0,bpm,7,
042-S11-006,22,WEEK20,2026-06-02,SYSBP,128.0,mmHg,8,
042-S11-006,23,WEEK20,2026-06-02,DIABP,80.0,mmHg,8,
042-S11-006,24,WEEK20,2026-06-02,PULSE,71.0,bpm,8,
042-S11-006,25,WEEK24,2026-06-30,SYSBP,128.0,mmHg,10,
042-S11-006,26,WEEK24,2026-06-30,DIABP,80.0,mmHg,10,
042-S11-006,27,WEEK24,2026-06-30,PULSE,71.0,bpm,10,
042-S11-006,28,EOS,2026-07-14,SYSBP,128.0,mmHg,11,
042-S11-006,29,EOS,2026-07-14,DIABP,79.0,mmHg,11,
042-S11-006,30,EOS,2026-07-14,PULSE,71.0,bpm,11,
042-S12-006,1,SCREENING,2026-01-12,SYSBP,135.0,mmHg,1,
042-S12-006,2,SCREENING,2026-01-12,DIABP,72.0,mmHg,1,
042-S12-006,3,SCREENING,2026-01-12,PULSE,87.0,bpm,1,
042-S12-006,4,BASELINE,2026-01-25,SYSBP,118.0,mmHg,1,
042-S12-006,5,BASELINE,2026-01-25,DIABP,76.0,mmHg,1,
042-S12-006,6,BASELINE,2026-01-25,PULSE,75.0,bpm,1,
042-S12-006,7,WEEK2,2026-02-06,SYSBP,140.0,mmHg,2,
042-S12-006,8,WEEK2,2026-02-06,DIABP,75.0,mmHg,2,
042-S12-006,9,WEEK2,2026-02-06,PULSE,70.0,bpm,2,
042-S12-006,10,WEEK4,2026-02-20,SYSBP,129.0,mmHg,3,
042-S12-006,11,WEEK4,2026-02-20,DIABP,84.0,mmHg,3,
042-S12-006,12,WEEK4,2026-02-20,PULSE,69.0,bpm,3,
042-S12-006,13,WEEK8,2026-03-19,SYSBP,137.0,mmHg,4,
042-S12-006,14,WEEK8,2026-03-19,DIABP,73.0,mmHg,4,
042-S12-006,15,WEEK8,2026-03-19,PULSE,68.0,bpm,4,
042-S12-006,16,WEEK12,2026-04-17,SYSBP,132.0,mmHg,6,
042-S12-006,17,WEEK12,2026-04-17,DIABP,83.0,mmHg,6,
042-S12-006,18,WEEK12,2026-04-17,PULSE,57.0,bpm,6,
042-S12-006,19,WEEK16,2026-05-18,SYSBP,119.0,mmHg,8,
042-S12-006,20,WEEK16,2026-05-18,DIABP,94.0,mmHg,8,
042-S12-006,21,WEEK16,2026-05-18,PULSE,75.0,bpm,8,
042-S12-006,22,WEEK20,2026-06-14,SYSBP,144.0,mmHg,9,
042-S12-006,23,WEEK20,2026-06-14,DIABP,82.0,mmHg,9,
042-S12-006,24,WEEK20,2026-06-14,PULSE,60.0,bpm,9,
042-S12-006,25,WEEK24,2026-07-12,SYSBP,136.0,mmHg,11,
042-S12-006,26,WEEK24,2026-07-12,DIABP,90.0,mmHg,11,
042-S12-006,27,WEEK24,2026-07-12,PULSE,75.0,bpm,11,
042-S12-006,28,EOS,2026-07-25,SYSBP,131.0,mmHg,11,
042-S12-006,29,EOS,2026-07-25,DIABP,79.0,mmHg,11,
042-S12-006,30,EOS,2026-07-25,PULSE,65.0,bpm,11,
042-S01-007,1,SCREENING,2026-01-08,SYSBP,134.0,mmHg,1,
042-S01-007,2,SCREENING,2026-01-08,DIABP,79.0,mmHg,1,
042-S01-007,3,SCREENING,2026-01-08,PULSE,81.0,bpm,1,
042-S01-007,4,BASELINE,2026-01-23,SYSBP,127.0,mmHg,1,
042-S01-007,5,BASELINE,2026-01-23,DIABP,84.0,mmHg,1,
042-S01-007,6,BASELINE,2026-01-23,PULSE,65.0,bpm,1,
042-S01-007,7,WEEK2,2026-02-07,SYSBP,109.0,mmHg,2,
042-S01-007,8,WEEK2,2026-02-07,DIABP,102.0,mmHg,2,
042-S01-007,9,WEEK2,2026-02-07,PULSE,63.0,bpm,2,
042-S01-007,10,WEEK4,2026-02-14,SYSBP,131.0,mmHg,2,
042-S01-007,11,WEEK4,2026-02-14,DIABP,76.0,mmHg,2,
042-S01-007,12,WEEK4,2026-02-14,PULSE,68.0,bpm,2,
042-S01-007,13,WEEK8,2026-03-18,SYSBP,140.0,mmHg,4,
042-S01-007,14,WEEK8,2026-03-18,DIABP,87.0,mmHg,4,
042-S01-007,15,WEEK8,2026-03-18,PULSE,67.0,bpm,4,
042-S01-007,16,WEEK12,2026-04-16,SYSBP,142.0,mmHg,6,
042-S01-007,17,WEEK12,2026-04-16,DIABP,64.0,mmHg,6,
042-S01-007,18,WEEK12,2026-04-16,PULSE,83.0,bpm,6,
042-S01-007,19,WEEK16,2026-05-14,SYSBP,138.0,mmHg,7,
042-S01-007,20,WEEK16,2026-05-14,DIABP,89.0,mmHg,7,
042-S01-007,21,WEEK16,2026-05-14,PULSE,60.0,bpm,7,
042-S01-007,22,WEEK20,2026-06-09,SYSBP,131.0,mmHg,9,
042-S01-007,23,WEEK20,2026-06-09,DIABP,75.0,mmHg,9,
042-S01-007,24,WEEK20,2026-06-09,PULSE,73.0,bpm,9,
042-S01-007,25,WEEK24,2026-07-11,SYSBP,145.0,mmHg,11,
042-S01-007,26,WEEK24,2026-07-11,DIABP,94.0,mmHg,11,
042-S01-007,27,WEEK24,2026-07-11,PULSE,73.0,bpm,11,
042-S01-007,28,EOS,2026-07-23,SYSBP,133.0,mmHg,11,
042-S01-007,29,EOS,2026-07-23,DIABP,73.0,mmHg,11,
042-S01-007,30,EOS,2026-07-23,PULSE,75.0,bpm,11,
042-S02-007,1,SCREENING,2026-01-04,SYSBP,132.0,mmHg,1,
042-S02-007,2,SCREENING,2026-01-04,DIABP,80.0,mmHg,1,
042-S02-007,3,SCREENING,2026-01-04,PULSE,68.0,bpm,1,
042-S02-007,4,BASELINE,2026-01-16,SYSBP,136.0,mmHg,1,
042-S02-007,5,BASELINE,2026-01-16,DIABP,69.0,mmHg,1,
042-S02-007,6,BASELINE,2026-01-16,PULSE,73.0,bpm,1,
042-S02-007,7,WEEK2,2026-01-30,SYSBP,134.0,mmHg,2,
042-S02-007,8,WEEK2,2026-01-30,DIABP,83.0,mmHg,2,
042-S02-007,9,WEEK2,2026-01-30,PULSE,77.0,bpm,2,
042-S02-007,10,WEEK4,2026-02-12,SYSBP,127.0,mmHg,2,
042-S02-007,11,WEEK4,2026-02-12,DIABP,83.0,mmHg,2,
042-S02-007,12,WEEK4,2026-02-12,PULSE,83.0,bpm,2,
042-S02-007,13,WEEK8,2026-03-05,SYSBP,131.0,mmHg,3,
042-S02-007,14,WEEK8,2026-03-05,DIABP,84.0,mmHg,3,
042-S02-007,15,WEEK8,2026-03-05,PULSE,70.0,bpm,3,
042-S02-007,16,WEEK12,2026-04-10,SYSBP,141.0,mmHg,5,
042-S02-007,17,WEEK12,2026-04-10,DIABP,85.0,mmHg,5,
042-S02-007,18,WEEK12,2026-04-10,PULSE,77.0,bpm,5,
042-S02-007,19,WEEK16,2026-05-08,SYSBP,132.0,mmHg,7,
042-S02-007,20,WEEK16,2026-05-08,DIABP,67.0,mmHg,7,
042-S02-007,21,WEEK16,2026-05-08,PULSE,61.0,bpm,7,
042-S02-007,22,WEEK20,2026-06-05,SYSBP,114.0,mmHg,9,
042-S02-007,23,WEEK20,2026-06-05,DIABP,83.0,mmHg,9,
042-S02-007,24,WEEK20,2026-06-05,PULSE,67.0,bpm,9,
042-S02-007,25,WEEK24,2026-07-05,SYSBP,130.0,mmHg,10,
042-S02-007,26,WEEK24,2026-07-05,DIABP,85.0,mmHg,10,
042-S02-007,27,WEEK24,2026-07-05,PULSE,75.0,bpm,10,
042-S02-007,28,EOS,2026-07-17,SYSBP,117.0,mmHg,11,
042-S02-007,29,EOS,2026-07-17,DIABP,59.0,mmHg,11,
042-S02-007,30,EOS,2026-07-17,PULSE,78.0,bpm,11,
042-S03-007,1,SCREENING,15-JAN-2026,SYSBP,125.0,mmHg,1,
042-S03-007,2,SCREENING,15-JAN-2026,DIABP,98.0,mmHg,1,
042-S03-007,3,SCREENING,15-JAN-2026,PULSE,69.0,bpm,1,
042-S03-007,4,BASELINE,29-JAN-2026,SYSBP,131.0,mmHg,1,
042-S03-007,5,BASELINE,29-JAN-2026,DIABP,100.0,mmHg,1,
042-S03-007,6,BASELINE,29-JAN-2026,PULSE,61.0,bpm,1,
042-S03-007,7,WEEK2,14-FEB-2026,SYSBP,117.0,mmHg,2,
042-S03-007,8,WEEK2,14-FEB-2026,DIABP,63.0,mmHg,2,
042-S03-007,9,WEEK2,14-FEB-2026,PULSE,73.0,bpm,2,
042-S03-007,10,WEEK4,26-FEB-2026,SYSBP,138.0,mmHg,3,
042-S03-007,11,WEEK4,26-FEB-2026,DIABP,81.0,mmHg,3,
042-S03-007,12,WEEK4,26-FEB-2026,PULSE,67.0,bpm,3,
042-S03-007,13,WEEK8,25-MAR-2026,SYSBP,125.0,mmHg,5,
042-S03-007,14,WEEK8,25-MAR-2026,DIABP,72.0,mmHg,5,
042-S03-007,15,WEEK8,25-MAR-2026,PULSE,86.0,bpm,5,
042-S03-007,16,WEEK12,22-APR-2026,SYSBP,136.0,mmHg,6,
042-S03-007,17,WEEK12,22-APR-2026,DIABP,100.0,mmHg,6,
042-S03-007,18,WEEK12,22-APR-2026,PULSE,61.0,bpm,6,
042-S03-007,19,WEEK16,23-MAY-2026,SYSBP,125.0,mmHg,8,
042-S03-007,20,WEEK16,23-MAY-2026,DIABP,80.0,mmHg,8,
042-S03-007,21,WEEK16,23-MAY-2026,PULSE,69.0,bpm,8,
042-S03-007,22,WEEK20,17-JUN-2026,SYSBP,130.0,mmHg,9,
042-S03-007,23,WEEK20,17-JUN-2026,DIABP,94.0,mmHg,9,
042-S03-007,24,WEEK20,17-JUN-2026,PULSE,70.0,bpm,9,
042-S03-007,25,WEEK24,26-JUL-2026,SYSBP,121.0,mmHg,11,
042-S03-007,26,WEEK24,26-JUL-2026,DIABP,87.0,mmHg,11,
042-S03-007,27,WEEK24,26-JUL-2026,PULSE,75.0,bpm,11,
042-S03-007,28,EOS,01-AUG-2026,SYSBP,135.0,mmHg,12,
042-S03-007,29,EOS,01-AUG-2026,DIABP,85.0,mmHg,12,
042-S03-007,30,EOS,01-AUG-2026,PULSE,72.0,bpm,12,
042-S04-007,1,SCREENING,2025-12-31,SYSBP,129.0,mmHg,1,
042-S04-007,2,SCREENING,2025-12-31,DIABP,81.0,mmHg,1,
042-S04-007,3,SCREENING,2025-12-31,PULSE,76.0,bpm,1,
042-S04-007,4,BASELINE,2026-01-12,SYSBP,133.0,mmHg,1,
042-S04-007,5,BASELINE,2026-01-12,DIABP,83.0,mmHg,1,
042-S04-007,6,BASELINE,2026-01-12,PULSE,72.0,bpm,1,
042-S04-007,7,WEEK2,2026-01-27,SYSBP,118.0,mmHg,1,
042-S04-007,8,WEEK2,2026-01-27,DIABP,74.0,mmHg,1,
042-S04-007,9,WEEK2,2026-01-27,PULSE,75.0,bpm,1,
042-S04-007,10,WEEK4,2026-02-12,SYSBP,128.0,mmHg,2,
042-S04-007,11,WEEK4,2026-02-12,DIABP,88.0,mmHg,2,
042-S04-007,12,WEEK4,2026-02-12,PULSE,57.0,bpm,2,
042-S04-007,13,WEEK8,2026-03-11,SYSBP,134.0,mmHg,4,
042-S04-007,14,WEEK8,2026-03-11,DIABP,88.0,mmHg,4,
042-S04-007,15,WEEK8,2026-03-11,PULSE,82.0,bpm,4,
042-S04-007,16,WEEK12,2026-04-09,SYSBP,123.0,mmHg,5,
042-S04-007,17,WEEK12,2026-04-09,DIABP,61.0,mmHg,5,
042-S04-007,18,WEEK12,2026-04-09,PULSE,77.0,bpm,5,
042-S04-007,19,WEEK16,2026-05-16,SYSBP,139.0,mmHg,7,
042-S04-007,20,WEEK16,2026-05-16,DIABP,64.0,mmHg,7,
042-S04-007,21,WEEK16,2026-05-16,PULSE,49.0,bpm,7,
042-S04-007,22,WEEK20,2026-05-31,SYSBP,112.0,mmHg,8,
042-S04-007,23,WEEK20,2026-05-31,DIABP,63.0,mmHg,8,
042-S04-007,24,WEEK20,2026-05-31,PULSE,82.0,bpm,8,
042-S04-007,25,WEEK24,2026-06-28,SYSBP,127.0,mmHg,10,
042-S04-007,26,WEEK24,2026-06-28,DIABP,81.0,mmHg,10,
042-S04-007,27,WEEK24,2026-06-28,PULSE,80.0,bpm,10,
042-S04-007,28,EOS,2026-07-14,SYSBP,111.0,mmHg,11,
042-S04-007,29,EOS,2026-07-14,DIABP,80.0,mmHg,11,
042-S04-007,30,EOS,2026-07-14,PULSE,71.0,bpm,11,
042-S05-007,1,SCREENING,2026-01-09,SYSBP,126.0,mmHg,1,
042-S05-007,2,SCREENING,2026-01-09,DIABP,79.0,mmHg,1,
042-S05-007,3,SCREENING,2026-01-09,PULSE,65.0,bpm,1,
042-S05-007,4,BASELINE,2026-01-20,SYSBP,128.0,mmHg,1,
042-S05-007,5,BASELINE,2026-01-20,DIABP,81.0,mmHg,1,
042-S05-007,6,BASELINE,2026-01-20,PULSE,65.0,bpm,1,
042-S05-007,7,WEEK2,2026-02-06,SYSBP,126.0,mmHg,2,
042-S05-007,8,WEEK2,2026-02-06,DIABP,86.0,mmHg,2,
042-S05-007,9,WEEK2,2026-02-06,PULSE,78.0,bpm,2,
042-S05-007,10,WEEK4,2026-02-18,SYSBP,149.0,mmHg,3,
042-S05-007,11,WEEK4,2026-02-18,DIABP,80.0,mmHg,3,
042-S05-007,12,WEEK4,2026-02-18,PULSE,83.0,bpm,3,
042-S05-007,13,WEEK8,2026-03-17,SYSBP,126.0,mmHg,4,
042-S05-007,14,WEEK8,2026-03-17,DIABP,96.0,mmHg,4,
042-S05-007,15,WEEK8,2026-03-17,PULSE,57.0,bpm,4,
042-S05-007,16,WEEK12,2026-04-17,SYSBP,117.0,mmHg,6,
042-S05-007,17,WEEK12,2026-04-17,DIABP,83.0,mmHg,6,
042-S05-007,18,WEEK12,2026-04-17,PULSE,75.0,bpm,6,
042-S05-007,19,WEEK16,2026-05-14,SYSBP,116.0,mmHg,7,
042-S05-007,20,WEEK16,2026-05-14,DIABP,73.0,mmHg,7,
042-S05-007,21,WEEK16,2026-05-14,PULSE,65.0,bpm,7,
042-S05-007,22,WEEK20,2026-06-13,SYSBP,120.0,mmHg,9,
042-S05-007,23,WEEK20,2026-06-13,DIABP,81.0,mmHg,9,
042-S05-007,24,WEEK20,2026-06-13,PULSE,69.0,bpm,9,
042-S05-007,25,WEEK24,2026-07-07,SYSBP,121.0,mmHg,10,
042-S05-007,26,WEEK24,2026-07-07,DIABP,79.0,mmHg,10,
042-S05-007,27,WEEK24,2026-07-07,PULSE,70.0,bpm,10,
042-S05-007,28,EOS,2026-07-13,SYSBP,127.0,mmHg,11,
042-S05-007,29,EOS,2026-07-13,DIABP,69.0,mmHg,11,
042-S05-007,30,EOS,2026-07-13,PULSE,62.0,bpm,11,
042-S06-007,1,SCREENING,2026-01-11,SYSBP,131.0,mmHg,1,
042-S06-007,2,SCREENING,2026-01-11,DIABP,85.0,mmHg,1,
042-S06-007,3,SCREENING,2026-01-11,PULSE,75.0,bpm,1,
042-S06-007,4,BASELINE,2026-01-26,SYSBP,133.0,mmHg,1,
042-S06-007,5,BASELINE,2026-01-26,DIABP,57.0,mmHg,1,
042-S06-007,6,BASELINE,2026-01-26,PULSE,72.0,bpm,1,
042-S06-007,7,WEEK2,2026-02-10,SYSBP,112.0,mmHg,2,
042-S06-007,8,WEEK2,2026-02-10,DIABP,71.0,mmHg,2,
042-S06-007,9,WEEK2,2026-02-10,PULSE,59.0,bpm,2,
042-S06-007,10,WEEK4,2026-02-20,SYSBP,135.0,mmHg,3,
042-S06-007,11,WEEK4,2026-02-20,DIABP,86.0,mmHg,3,
042-S06-007,12,WEEK4,2026-02-20,PULSE,67.0,bpm,3,
042-S06-007,13,WEEK8,2026-03-23,SYSBP,128.0,mmHg,4,
042-S06-007,14,WEEK8,2026-03-23,DIABP,69.0,mmHg,4,
042-S06-007,15,WEEK8,2026-03-23,PULSE,78.0,bpm,4,
042-S06-007,16,WEEK12,2026-04-19,SYSBP,113.0,mmHg,6,
042-S06-007,17,WEEK12,2026-04-19,DIABP,85.0,mmHg,6,
042-S06-007,18,WEEK12,2026-04-19,PULSE,61.0,bpm,6,
042-S06-007,19,WEEK16,2026-05-18,SYSBP,120.0,mmHg,8,
042-S06-007,20,WEEK16,2026-05-18,DIABP,77.0,mmHg,8,
042-S06-007,21,WEEK16,2026-05-18,PULSE,74.0,bpm,8,
042-S06-007,22,WEEK20,2026-06-20,SYSBP,126.0,mmHg,9,
042-S06-007,23,WEEK20,2026-06-20,DIABP,70.0,mmHg,9,
042-S06-007,24,WEEK20,2026-06-20,PULSE,80.0,bpm,9,
042-S06-007,25,WEEK24,2026-07-11,SYSBP,104.0,mmHg,11,
042-S06-007,26,WEEK24,2026-07-11,DIABP,92.0,mmHg,11,
042-S06-007,27,WEEK24,2026-07-11,PULSE,71.0,bpm,11,
042-S06-007,28,EOS,2026-07-26,SYSBP,132.0,mmHg,11,
042-S06-007,29,EOS,2026-07-26,DIABP,67.0,mmHg,11,
042-S06-007,30,EOS,2026-07-26,PULSE,73.0,bpm,11,
042-S07-007,1,SCREENING,2026-01-12,SYSBP,121.0,mmHg,1,
042-S07-007,2,SCREENING,2026-01-12,DIABP,71.0,mmHg,1,
042-S07-007,3,SCREENING,2026-01-12,PULSE,92.0,bpm,1,
042-S07-007,4,BASELINE,2026-01-23,SYSBP,129.0,mmHg,1,
042-S07-007,5,BASELINE,2026-01-23,DIABP,94.0,mmHg,1,
042-S07-007,6,BASELINE,2026-01-23,PULSE,73.0,bpm,1,
042-S07-007,7,WEEK2,2026-02-08,SYSBP,125.0,mmHg,2,
042-S07-007,8,WEEK2,2026-02-08,DIABP,83.0,mmHg,2,
042-S07-007,9,WEEK2,2026-02-08,PULSE,85.0,bpm,2,
042-S07-007,10,WEEK4,2026-02-23,SYSBP,134.0,mmHg,3,
042-S07-007,11,WEEK4,2026-02-23,DIABP,88.0,mmHg,3,
042-S07-007,12,WEEK4,2026-02-23,PULSE,71.0,bpm,3,
042-S07-007,13,WEEK8,2026-03-12,SYSBP,124.0,mmHg,4,
042-S07-007,14,WEEK8,2026-03-12,DIABP,71.0,mmHg,4,
042-S07-007,15,WEEK8,2026-03-12,PULSE,85.0,bpm,4,
042-S07-007,16,WEEK12,2026-04-19,SYSBP,115.0,mmHg,6,
042-S07-007,17,WEEK12,2026-04-19,DIABP,90.0,mmHg,6,
042-S07-007,18,WEEK12,2026-04-19,PULSE,78.0,bpm,6,
042-S07-007,19,WEEK16,2026-05-18,SYSBP,130.0,mmHg,8,
042-S07-007,20,WEEK16,2026-05-18,DIABP,69.0,mmHg,8,
042-S07-007,21,WEEK16,2026-05-18,PULSE,61.0,bpm,8,
042-S07-007,22,WEEK20,2026-06-15,SYSBP,118.0,mmHg,9,
042-S07-007,23,WEEK20,2026-06-15,DIABP,90.0,mmHg,9,
042-S07-007,24,WEEK20,2026-06-15,PULSE,72.0,bpm,9,
042-S07-007,25,WEEK24,2026-07-09,SYSBP,143.0,mmHg,10,
042-S07-007,26,WEEK24,2026-07-09,DIABP,74.0,mmHg,10,
042-S07-007,27,WEEK24,2026-07-09,PULSE,65.0,bpm,10,
042-S07-007,28,EOS,2026-07-23,SYSBP,110.0,mmHg,11,
042-S07-007,29,EOS,2026-07-23,DIABP,68.0,mmHg,11,
042-S07-007,30,EOS,2026-07-23,PULSE,67.0,bpm,11,
042-S08-007,1,SCREENING,2026-01-16,SYSBP,146.0,mmHg,4,
042-S08-007,2,SCREENING,2026-01-16,DIABP,59.0,mmHg,4,
042-S08-007,3,SCREENING,2026-01-16,PULSE,52.0,bpm,4,
042-S08-007,4,BASELINE,2026-02-01,SYSBP,133.0,mmHg,5,
042-S08-007,5,BASELINE,2026-02-01,DIABP,64.0,mmHg,5,
042-S08-007,6,BASELINE,2026-02-01,PULSE,85.0,bpm,5,
042-S08-007,7,WEEK2,2026-02-03,SYSBP,130.0,mmHg,5,
042-S08-007,8,WEEK2,2026-02-03,DIABP,77.0,mmHg,5,
042-S08-007,9,WEEK2,2026-02-03,PULSE,73.0,bpm,5,
042-S08-007,10,WEEK4,2026-02-25,SYSBP,130.0,mmHg,6,
042-S08-007,11,WEEK4,2026-02-25,DIABP,72.0,mmHg,6,
042-S08-007,12,WEEK4,2026-02-25,PULSE,47.0,bpm,6,
042-S08-007,13,WEEK8,2026-03-25,SYSBP,122.0,mmHg,8,
042-S08-007,14,WEEK8,2026-03-25,DIABP,76.0,mmHg,8,
042-S08-007,15,WEEK8,2026-03-25,PULSE,68.0,bpm,8,
042-S08-007,16,WEEK12,2026-04-22,SYSBP,117.0,mmHg,9,
042-S08-007,17,WEEK12,2026-04-22,DIABP,75.0,mmHg,9,
042-S08-007,18,WEEK12,2026-04-22,PULSE,73.0,bpm,9,
042-S08-007,19,WEEK16,2026-05-23,SYSBP,114.0,mmHg,11,
042-S08-007,20,WEEK16,2026-05-23,DIABP,86.0,mmHg,11,
042-S08-007,21,WEEK16,2026-05-23,PULSE,61.0,bpm,11,
042-S08-007,22,WEEK20,2026-06-18,SYSBP,130.0,mmHg,12,
042-S08-007,23,WEEK20,2026-06-18,DIABP,82.0,mmHg,12,
042-S08-007,24,WEEK20,2026-06-18,PULSE,67.0,bpm,12,
042-S08-007,25,WEEK24,2026-07-18,SYSBP,136.0,mmHg,14,
042-S08-007,26,WEEK24,2026-07-18,DIABP,87.0,mmHg,14,
042-S08-007,27,WEEK24,2026-07-18,PULSE,67.0,bpm,14,
042-S08-007,28,EOS,2026-08-02,SYSBP,126.0,mmHg,15,
042-S08-007,29,EOS,2026-08-02,DIABP,75.0,mmHg,15,
042-S08-007,30,EOS,2026-08-02,PULSE,66.0,bpm,15,
042-S09-007,1,SCREENING,2026-01-13,SYSBP,125.0,mmHg,1,
042-S09-007,2,SCREENING,2026-01-13,DIABP,74.0,mmHg,1,
042-S09-007,3,SCREENING,2026-01-13,PULSE,67.0,bpm,1,
042-S09-007,4,BASELINE,2026-01-25,SYSBP,140.0,mmHg,1,
042-S09-007,5,BASELINE,2026-01-25,DIABP,82.0,mmHg,1,
042-S09-007,6,BASELINE,2026-01-25,PULSE,85.0,bpm,1,
042-S09-007,7,WEEK2,2026-02-11,SYSBP,130.0,mmHg,2,
042-S09-007,8,WEEK2,2026-02-11,DIABP,80.0,mmHg,2,
042-S09-007,9,WEEK2,2026-02-11,PULSE,53.0,bpm,2,
042-S09-007,10,WEEK4,2026-02-25,SYSBP,124.0,mmHg,3,
042-S09-007,11,WEEK4,2026-02-25,DIABP,77.0,mmHg,3,
042-S09-007,12,WEEK4,2026-02-25,PULSE,84.0,bpm,3,
042-S09-007,13,WEEK8,2026-03-28,SYSBP,133.0,mmHg,5,
042-S09-007,14,WEEK8,2026-03-28,DIABP,77.0,mmHg,5,
042-S09-007,15,WEEK8,2026-03-28,PULSE,81.0,bpm,5,
042-S09-007,16,WEEK12,2026-04-19,SYSBP,129.0,mmHg,6,
042-S09-007,17,WEEK12,2026-04-19,DIABP,78.0,mmHg,6,
042-S09-007,18,WEEK12,2026-04-19,PULSE,72.0,bpm,6,
042-S09-007,19,WEEK16,2026-05-20,SYSBP,129.0,mmHg,8,
042-S09-007,20,WEEK16,2026-05-20,DIABP,50.0,mmHg,8,
042-S09-007,21,WEEK16,2026-05-20,PULSE,48.0,bpm,8,
042-S09-007,22,WEEK20,2026-06-16,SYSBP,120.0,mmHg,9,
042-S09-007,23,WEEK20,2026-06-16,DIABP,82.0,mmHg,9,
042-S09-007,24,WEEK20,2026-06-16,PULSE,75.0,bpm,9,
042-S09-007,25,WEEK24,2026-07-14,SYSBP,118.0,mmHg,11,
042-S09-007,26,WEEK24,2026-07-14,DIABP,72.0,mmHg,11,
042-S09-007,27,WEEK24,2026-07-14,PULSE,90.0,bpm,11,
042-S09-007,28,EOS,2026-07-29,SYSBP,122.0,mmHg,12,
042-S09-007,29,EOS,2026-07-29,DIABP,94.0,mmHg,12,
042-S09-007,30,EOS,2026-07-29,PULSE,68.0,bpm,12,
042-S10-007,1,SCREENING,2026-01-06,SYSBP,124.0,mmHg,1,
042-S10-007,2,SCREENING,2026-01-06,DIABP,67.0,mmHg,1,
042-S10-007,3,SCREENING,2026-01-06,PULSE,71.0,bpm,1,
042-S10-007,4,BASELINE,2026-01-20,SYSBP,123.0,mmHg,1,
042-S10-007,5,BASELINE,2026-01-20,DIABP,95.0,mmHg,1,
042-S10-007,6,BASELINE,2026-01-20,PULSE,76.0,bpm,1,
042-S10-007,7,WEEK2,2026-02-03,SYSBP,123.0,mmHg,2,
042-S10-007,8,WEEK2,2026-02-03,DIABP,79.0,mmHg,2,
042-S10-007,9,WEEK2,2026-02-03,PULSE,74.0,bpm,2,
042-S10-007,10,WEEK4,2026-02-17,SYSBP,126.0,mmHg,3,
042-S10-007,11,WEEK4,2026-02-17,DIABP,87.0,mmHg,3,
042-S10-007,12,WEEK4,2026-02-17,PULSE,73.0,bpm,3,
042-S10-007,13,WEEK8,2026-03-23,SYSBP,137.0,mmHg,4,
042-S10-007,14,WEEK8,2026-03-23,DIABP,78.0,mmHg,4,
042-S10-007,15,WEEK8,2026-03-23,PULSE,90.0,bpm,4,
042-S10-007,16,WEEK12,2026-04-13,SYSBP,142.0,mmHg,6,
042-S10-007,17,WEEK12,2026-04-13,DIABP,78.0,mmHg,6,
042-S10-007,18,WEEK12,2026-04-13,PULSE,67.0,bpm,6,
042-S10-007,19,WEEK16,2026-05-12,SYSBP,118.0,mmHg,7,
042-S10-007,20,WEEK16,2026-05-12,DIABP,63.0,mmHg,7,
042-S10-007,21,WEEK16,2026-05-12,PULSE,71.0,bpm,7,
042-S10-007,22,WEEK20,2026-06-12,SYSBP,132.0,mmHg,9,
042-S10-007,23,WEEK20,2026-06-12,DIABP,85.0,mmHg,9,
042-S10-007,24,WEEK20,2026-06-12,PULSE,66.0,bpm,9,
042-S10-007,25,WEEK24,2026-07-06,SYSBP,124.0,mmHg,10,
042-S10-007,26,WEEK24,2026-07-06,DIABP,85.0,mmHg,10,
042-S10-007,27,WEEK24,2026-07-06,PULSE,73.0,bpm,10,
042-S10-007,28,EOS,2026-07-20,SYSBP,127.0,mmHg,11,
042-S10-007,29,EOS,2026-07-20,DIABP,88.0,mmHg,11,
042-S10-007,30,EOS,2026-07-20,PULSE,61.0,bpm,11,
042-S11-007,1,SCREENING,2026-01-06,SYSBP,128.0,mmHg,6,
042-S11-007,2,SCREENING,2026-01-06,DIABP,81.0,mmHg,6,
042-S11-007,3,SCREENING,2026-01-06,PULSE,73.0,bpm,6,
042-S11-007,4,BASELINE,2026-01-20,SYSBP,128.0,mmHg,6,
042-S11-007,5,BASELINE,2026-01-20,DIABP,79.0,mmHg,6,
042-S11-007,6,BASELINE,2026-01-20,PULSE,72.0,bpm,6,
042-S11-007,7,WEEK2,2026-02-03,SYSBP,127.0,mmHg,6,
042-S11-007,8,WEEK2,2026-02-03,DIABP,81.0,mmHg,6,
042-S11-007,9,WEEK2,2026-02-03,PULSE,72.0,bpm,6,
042-S11-007,10,WEEK4,2026-02-17,SYSBP,127.0,mmHg,6,
042-S11-007,11,WEEK4,2026-02-17,DIABP,80.0,mmHg,6,
042-S11-007,12,WEEK4,2026-02-17,PULSE,72.0,bpm,6,
042-S11-007,13,WEEK8,2026-03-17,SYSBP,128.0,mmHg,6,
042-S11-007,14,WEEK8,2026-03-17,DIABP,80.0,mmHg,6,
042-S11-007,15,WEEK8,2026-03-17,PULSE,72.0,bpm,6,
042-S11-007,16,WEEK12,2026-04-14,SYSBP,128.0,mmHg,6,
042-S11-007,17,WEEK12,2026-04-14,DIABP,81.0,mmHg,6,
042-S11-007,18,WEEK12,2026-04-14,PULSE,72.0,bpm,6,
042-S11-007,19,WEEK16,2026-05-12,SYSBP,128.0,mmHg,7,
042-S11-007,20,WEEK16,2026-05-12,DIABP,80.0,mmHg,7,
042-S11-007,21,WEEK16,2026-05-12,PULSE,73.0,bpm,7,
042-S11-007,22,WEEK20,2026-06-09,SYSBP,127.0,mmHg,9,
042-S11-007,23,WEEK20,2026-06-09,DIABP,80.0,mmHg,9,
042-S11-007,24,WEEK20,2026-06-09,PULSE,71.0,bpm,9,
042-S11-007,25,WEEK24,2026-07-07,SYSBP,128.0,mmHg,10,
042-S11-007,26,WEEK24,2026-07-07,DIABP,79.0,mmHg,10,
042-S11-007,27,WEEK24,2026-07-07,PULSE,72.0,bpm,10,
042-S11-007,28,EOS,2026-07-21,SYSBP,128.0,mmHg,11,
042-S11-007,29,EOS,2026-07-21,DIABP,81.0,mmHg,11,
042-S11-007,30,EOS,2026-07-21,PULSE,71.0,bpm,11,
042-S12-007,1,SCREENING,2026-01-18,SYSBP,121.0,mmHg,1,
042-S12-007,2,SCREENING,2026-01-18,DIABP,71.0,mmHg,1,
042-S12-007,3,SCREENING,2026-01-18,PULSE,70.0,bpm,1,
042-S12-007,4,BASELINE,2026-02-02,SYSBP,122.0,mmHg,2,
042-S12-007,5,BASELINE,2026-02-02,DIABP,73.0,mmHg,2,
042-S12-007,6,BASELINE,2026-02-02,PULSE,72.0,bpm,2,
042-S12-007,7,WEEK2,2026-02-16,SYSBP,115.0,mmHg,2,
042-S12-007,8,WEEK2,2026-02-16,DIABP,86.0,mmHg,2,
042-S12-007,9,WEEK2,2026-02-16,PULSE,82.0,bpm,2,
042-S12-007,10,WEEK4,2026-03-01,SYSBP,134.0,mmHg,3,
042-S12-007,11,WEEK4,2026-03-01,DIABP,85.0,mmHg,3,
042-S12-007,12,WEEK4,2026-03-01,PULSE,73.0,bpm,3,
042-S12-007,13,WEEK8,2026-03-28,SYSBP,119.0,mmHg,5,
042-S12-007,14,WEEK8,2026-03-28,DIABP,76.0,mmHg,5,
042-S12-007,15,WEEK8,2026-03-28,PULSE,94.0,bpm,5,
042-S12-007,16,WEEK12,2026-04-27,SYSBP,118.0,mmHg,6,
042-S12-007,17,WEEK12,2026-04-27,DIABP,78.0,mmHg,6,
042-S12-007,18,WEEK12,2026-04-27,PULSE,64.0,bpm,6,
042-S12-007,19,WEEK16,2026-05-23,SYSBP,130.0,mmHg,8,
042-S12-007,20,WEEK16,2026-05-23,DIABP,84.0,mmHg,8,
042-S12-007,21,WEEK16,2026-05-23,PULSE,76.0,bpm,8,
042-S12-007,22,WEEK20,2026-06-25,SYSBP,113.0,mmHg,10,
042-S12-007,23,WEEK20,2026-06-25,DIABP,76.0,mmHg,10,
042-S12-007,24,WEEK20,2026-06-25,PULSE,64.0,bpm,10,
042-S12-007,25,WEEK24,2026-07-20,SYSBP,126.0,mmHg,11,
042-S12-007,26,WEEK24,2026-07-20,DIABP,80.0,mmHg,11,
042-S12-007,27,WEEK24,2026-07-20,PULSE,70.0,bpm,11,
042-S12-007,28,EOS,2026-08-04,SYSBP,125.0,mmHg,12,
042-S12-007,29,EOS,2026-08-04,DIABP,84.0,mmHg,12,
042-S12-007,30,EOS,2026-08-04,PULSE,77.0,bpm,12,
042-S01-008,1,SCREENING,2026-01-06,SYSBP,119.0,mmHg,1,
042-S01-008,2,SCREENING,2026-01-06,DIABP,74.0,mmHg,1,
042-S01-008,3,SCREENING,2026-01-06,PULSE,82.0,bpm,1,
042-S01-008,4,BASELINE,2026-01-20,SYSBP,126.0,mmHg,1,
042-S01-008,5,BASELINE,2026-01-20,DIABP,88.0,mmHg,1,
042-S01-008,6,BASELINE,2026-01-20,PULSE,79.0,bpm,1,
042-S01-008,7,WEEK2,2026-02-02,SYSBP,121.0,mmHg,2,
042-S01-008,8,WEEK2,2026-02-02,DIABP,83.0,mmHg,2,
042-S01-008,9,WEEK2,2026-02-02,PULSE,77.0,bpm,2,
042-S01-008,10,WEEK4,2026-02-13,SYSBP,126.0,mmHg,2,
042-S01-008,11,WEEK4,2026-02-13,DIABP,69.0,mmHg,2,
042-S01-008,12,WEEK4,2026-02-13,PULSE,66.0,bpm,2,
042-S01-008,13,WEEK8,2026-03-19,SYSBP,130.0,mmHg,4,
042-S01-008,14,WEEK8,2026-03-19,DIABP,91.0,mmHg,4,
042-S01-008,15,WEEK8,2026-03-19,PULSE,59.0,bpm,4,
042-S01-008,16,WEEK12,2026-04-15,SYSBP,126.0,mmHg,6,
042-S01-008,17,WEEK12,2026-04-15,DIABP,71.0,mmHg,6,
042-S01-008,18,WEEK12,2026-04-15,PULSE,71.0,bpm,6,
042-S01-008,19,WEEK16,2026-05-14,SYSBP,121.0,mmHg,7,
042-S01-008,20,WEEK16,2026-05-14,DIABP,69.0,mmHg,7,
042-S01-008,21,WEEK16,2026-05-14,PULSE,82.0,bpm,7,
042-S01-008,22,WEEK20,2026-06-10,SYSBP,124.0,mmHg,9,
042-S01-008,23,WEEK20,2026-06-10,DIABP,84.0,mmHg,9,
042-S01-008,24,WEEK20,2026-06-10,PULSE,72.0,bpm,9,
042-S01-008,25,WEEK24,2026-07-07,SYSBP,125.0,mmHg,10,
042-S01-008,26,WEEK24,2026-07-07,DIABP,81.0,mmHg,10,
042-S01-008,27,WEEK24,2026-07-07,PULSE,67.0,bpm,10,
042-S01-008,28,EOS,2026-07-23,SYSBP,145.0,mmHg,11,
042-S01-008,29,EOS,2026-07-23,DIABP,89.0,mmHg,11,
042-S01-008,30,EOS,2026-07-23,PULSE,84.0,bpm,11,
042-S02-008,1,SCREENING,2026-01-10,SYSBP,141.0,mmHg,1,
042-S02-008,2,SCREENING,2026-01-10,DIABP,64.0,mmHg,1,
042-S02-008,3,SCREENING,2026-01-10,PULSE,80.0,bpm,1,
042-S02-008,4,BASELINE,2026-01-25,SYSBP,124.0,mmHg,1,
042-S02-008,5,BASELINE,2026-01-25,DIABP,71.0,mmHg,1,
042-S02-008,6,BASELINE,2026-01-25,PULSE,79.0,bpm,1,
042-S02-008,7,WEEK2,2026-02-06,SYSBP,121.0,mmHg,2,
042-S02-008,8,WEEK2,2026-02-06,DIABP,79.0,mmHg,2,
042-S02-008,9,WEEK2,2026-02-06,PULSE,64.0,bpm,2,
042-S02-008,10,WEEK4,2026-02-21,SYSBP,123.0,mmHg,3,
042-S02-008,11,WEEK4,2026-02-21,DIABP,69.0,mmHg,3,
042-S02-008,12,WEEK4,2026-02-21,PULSE,65.0,bpm,3,
042-S02-008,13,WEEK8,2026-03-20,SYSBP,123.0,mmHg,4,
042-S02-008,14,WEEK8,2026-03-20,DIABP,86.0,mmHg,4,
042-S02-008,15,WEEK8,2026-03-20,PULSE,77.0,bpm,4,
042-S02-008,16,WEEK12,2026-04-18,SYSBP,129.0,mmHg,6,
042-S02-008,17,WEEK12,2026-04-18,DIABP,79.0,mmHg,6,
042-S02-008,18,WEEK12,2026-04-18,PULSE,61.0,bpm,6,
042-S02-008,19,WEEK16,2026-05-17,SYSBP,115.0,mmHg,7,
042-S02-008,20,WEEK16,2026-05-17,DIABP,80.0,mmHg,7,
042-S02-008,21,WEEK16,2026-05-17,PULSE,79.0,bpm,7,
042-S02-008,22,WEEK20,2026-06-11,SYSBP,123.0,mmHg,9,
042-S02-008,23,WEEK20,2026-06-11,DIABP,79.0,mmHg,9,
042-S02-008,24,WEEK20,2026-06-11,PULSE,70.0,bpm,9,
042-S02-008,25,WEEK24,2026-07-10,SYSBP,119.0,mmHg,10,
042-S02-008,26,WEEK24,2026-07-10,DIABP,84.0,mmHg,10,
042-S02-008,27,WEEK24,2026-07-10,PULSE,71.0,bpm,10,
042-S02-008,28,EOS,2026-07-25,SYSBP,130.0,mmHg,11,
042-S02-008,29,EOS,2026-07-25,DIABP,91.0,mmHg,11,
042-S02-008,30,EOS,2026-07-25,PULSE,74.0,bpm,11,
042-S03-008,1,SCREENING,05-JAN-2026,SYSBP,121.0,mmHg,1,
042-S03-008,2,SCREENING,05-JAN-2026,DIABP,79.0,mmHg,1,
042-S03-008,3,SCREENING,05-JAN-2026,PULSE,69.0,bpm,1,
042-S03-008,4,BASELINE,22-JAN-2026,SYSBP,119.0,mmHg,1,
042-S03-008,5,BASELINE,22-JAN-2026,DIABP,85.0,mmHg,1,
042-S03-008,6,BASELINE,22-JAN-2026,PULSE,75.0,bpm,1,
042-S03-008,7,WEEK2,31-JAN-2026,SYSBP,112.0,mmHg,2,
042-S03-008,8,WEEK2,31-JAN-2026,DIABP,86.0,mmHg,2,
042-S03-008,9,WEEK2,31-JAN-2026,PULSE,62.0,bpm,2,
042-S03-008,10,WEEK4,20-FEB-2026,SYSBP,123.0,mmHg,3,
042-S03-008,11,WEEK4,20-FEB-2026,DIABP,77.0,mmHg,3,
042-S03-008,12,WEEK4,20-FEB-2026,PULSE,77.0,bpm,3,
042-S03-008,13,WEEK8,17-MAR-2026,SYSBP,114.0,mmHg,4,
042-S03-008,14,WEEK8,17-MAR-2026,DIABP,88.0,mmHg,4,
042-S03-008,15,WEEK8,17-MAR-2026,PULSE,79.0,bpm,4,
042-S03-008,16,WEEK12,17-APR-2026,SYSBP,119.0,mmHg,6,
042-S03-008,17,WEEK12,17-APR-2026,DIABP,63.0,mmHg,6,
042-S03-008,18,WEEK12,17-APR-2026,PULSE,77.0,bpm,6,
042-S03-008,19,WEEK16,14-MAY-2026,SYSBP,132.0,mmHg,7,
042-S03-008,20,WEEK16,14-MAY-2026,DIABP,80.0,mmHg,7,
042-S03-008,21,WEEK16,14-MAY-2026,PULSE,78.0,bpm,7,
042-S03-008,22,WEEK20,09-JUN-2026,SYSBP,130.0,mmHg,9,
042-S03-008,23,WEEK20,09-JUN-2026,DIABP,59.0,mmHg,9,
042-S03-008,24,WEEK20,09-JUN-2026,PULSE,94.0,bpm,9,
042-S03-008,25,WEEK24,09-JUL-2026,SYSBP,137.0,mmHg,10,
042-S03-008,26,WEEK24,09-JUL-2026,DIABP,89.0,mmHg,10,
042-S03-008,27,WEEK24,09-JUL-2026,PULSE,76.0,bpm,10,
042-S03-008,28,EOS,24-JUL-2026,SYSBP,118.0,mmHg,11,
042-S03-008,29,EOS,24-JUL-2026,DIABP,90.0,mmHg,11,
042-S03-008,30,EOS,24-JUL-2026,PULSE,77.0,bpm,11,
042-S04-008,1,SCREENING,2026-01-08,SYSBP,134.0,mmHg,1,
042-S04-008,2,SCREENING,2026-01-08,DIABP,63.0,mmHg,1,
042-S04-008,3,SCREENING,2026-01-08,PULSE,80.0,bpm,1,
042-S04-008,4,BASELINE,2026-01-21,SYSBP,129.0,mmHg,1,
042-S04-008,5,BASELINE,2026-01-21,DIABP,74.0,mmHg,1,
042-S04-008,6,BASELINE,2026-01-21,PULSE,63.0,bpm,1,
042-S04-008,7,WEEK2,2026-02-05,SYSBP,121.0,mmHg,2,
042-S04-008,8,WEEK2,2026-02-05,DIABP,79.0,mmHg,2,
042-S04-008,9,WEEK2,2026-02-05,PULSE,57.0,bpm,2,
042-S04-008,10,WEEK4,2026-02-16,SYSBP,146.0,mmHg,2,
042-S04-008,11,WEEK4,2026-02-16,DIABP,71.0,mmHg,2,
042-S04-008,12,WEEK4,2026-02-16,PULSE,69.0,bpm,2,
042-S04-008,13,WEEK8,2026-03-29,SYSBP,152.0,mmHg,5,
042-S04-008,14,WEEK8,2026-03-29,DIABP,83.0,mmHg,5,
042-S04-008,15,WEEK8,2026-03-29,PULSE,67.0,bpm,5,
042-S04-008,16,WEEK12,2026-04-17,SYSBP,138.0,mmHg,6,
042-S04-008,17,WEEK12,2026-04-17,DIABP,96.0,mmHg,6,
042-S04-008,18,WEEK12,2026-04-17,PULSE,73.0,bpm,6,
042-S04-008,19,WEEK16,2026-05-12,SYSBP,143.0,mmHg,7,
042-S04-008,20,WEEK16,2026-05-12,DIABP,73.0,mmHg,7,
042-S04-008,21,WEEK16,2026-05-12,PULSE,67.0,bpm,7,
042-S04-008,22,WEEK20,2026-06-08,SYSBP,131.0,mmHg,9,
042-S04-008,23,WEEK20,2026-06-08,DIABP,92.0,mmHg,9,
042-S04-008,24,WEEK20,2026-06-08,PULSE,67.0,bpm,9,
042-S04-008,25,WEEK24,2026-07-06,SYSBP,124.0,mmHg,10,
042-S04-008,26,WEEK24,2026-07-06,DIABP,80.0,mmHg,10,
042-S04-008,27,WEEK24,2026-07-06,PULSE,77.0,bpm,10,
042-S04-008,28,EOS,2026-07-22,SYSBP,120.0,mmHg,11,
042-S04-008,29,EOS,2026-07-22,DIABP,70.0,mmHg,11,
042-S04-008,30,EOS,2026-07-22,PULSE,67.0,bpm,11,
042-S05-008,1,SCREENING,2026-01-07,SYSBP,132.0,mmHg,1,
042-S05-008,2,SCREENING,2026-01-07,DIABP,69.0,mmHg,1,
042-S05-008,3,SCREENING,2026-01-07,PULSE,74.0,bpm,1,
042-S05-008,4,BASELINE,2026-01-23,SYSBP,112.0,mmHg,1,
042-S05-008,5,BASELINE,2026-01-23,DIABP,78.0,mmHg,1,
042-S05-008,6,BASELINE,2026-01-23,PULSE,73.0,bpm,1,
042-S05-008,7,WEEK2,2026-02-05,SYSBP,125.0,mmHg,2,
042-S05-008,8,WEEK2,2026-02-05,DIABP,71.0,mmHg,2,
042-S05-008,9,WEEK2,2026-02-05,PULSE,75.0,bpm,2,
042-S05-008,10,WEEK4,2026-02-18,SYSBP,128.0,mmHg,3,
042-S05-008,11,WEEK4,2026-02-18,DIABP,76.0,mmHg,3,
042-S05-008,12,WEEK4,2026-02-18,PULSE,76.0,bpm,3,
042-S05-008,13,WEEK8,2026-03-22,SYSBP,130.0,mmHg,4,
042-S05-008,14,WEEK8,2026-03-22,DIABP,80.0,mmHg,4,
042-S05-008,15,WEEK8,2026-03-22,PULSE,84.0,bpm,4,
042-S05-008,16,WEEK12,2026-04-15,SYSBP,124.0,mmHg,6,
042-S05-008,17,WEEK12,2026-04-15,DIABP,101.0,mmHg,6,
042-S05-008,18,WEEK12,2026-04-15,PULSE,73.0,bpm,6,
042-S05-008,19,WEEK16,2026-05-15,SYSBP,133.0,mmHg,7,
042-S05-008,20,WEEK16,2026-05-15,DIABP,82.0,mmHg,7,
042-S05-008,21,WEEK16,2026-05-15,PULSE,61.0,bpm,7,
042-S05-008,22,WEEK20,2026-06-12,SYSBP,121.0,mmHg,9,
042-S05-008,23,WEEK20,2026-06-12,DIABP,102.0,mmHg,9,
042-S05-008,24,WEEK20,2026-06-12,PULSE,87.0,bpm,9,
042-S05-008,25,WEEK24,2026-07-08,SYSBP,131.0,mmHg,10,
042-S05-008,26,WEEK24,2026-07-08,DIABP,82.0,mmHg,10,
042-S05-008,27,WEEK24,2026-07-08,PULSE,73.0,bpm,10,
042-S05-008,28,EOS,2026-07-23,SYSBP,135.0,mmHg,11,
042-S05-008,29,EOS,2026-07-23,DIABP,82.0,mmHg,11,
042-S05-008,30,EOS,2026-07-23,PULSE,63.0,bpm,11,
042-S06-008,1,SCREENING,2026-01-18,SYSBP,133.0,mmHg,1,
042-S06-008,2,SCREENING,2026-01-18,DIABP,85.0,mmHg,1,
042-S06-008,3,SCREENING,2026-01-18,PULSE,77.0,bpm,1,
042-S06-008,4,BASELINE,2026-01-29,SYSBP,118.0,mmHg,1,
042-S06-008,5,BASELINE,2026-01-29,DIABP,74.0,mmHg,1,
042-S06-008,6,BASELINE,2026-01-29,PULSE,69.0,bpm,1,
042-S06-008,7,WEEK2,2026-02-08,SYSBP,131.0,mmHg,2,
042-S06-008,8,WEEK2,2026-02-08,DIABP,74.0,mmHg,2,
042-S06-008,9,WEEK2,2026-02-08,PULSE,66.0,bpm,2,
042-S06-008,10,WEEK4,2026-02-27,SYSBP,129.0,mmHg,3,
042-S06-008,11,WEEK4,2026-02-27,DIABP,93.0,mmHg,3,
042-S06-008,12,WEEK4,2026-02-27,PULSE,72.0,bpm,3,
042-S06-008,13,WEEK8,2026-03-18,SYSBP,124.0,mmHg,4,
042-S06-008,14,WEEK8,2026-03-18,DIABP,75.0,mmHg,4,
042-S06-008,15,WEEK8,2026-03-18,PULSE,56.0,bpm,4,
042-S06-008,16,WEEK12,2026-04-24,SYSBP,124.0,mmHg,6,
042-S06-008,17,WEEK12,2026-04-24,DIABP,80.0,mmHg,6,
042-S06-008,18,WEEK12,2026-04-24,PULSE,63.0,bpm,6,
042-S06-008,19,WEEK16,2026-05-23,SYSBP,148.0,mmHg,8,
042-S06-008,20,WEEK16,2026-05-23,DIABP,76.0,mmHg,8,
042-S06-008,21,WEEK16,2026-05-23,PULSE,67.0,bpm,8,
042-S06-008,22,WEEK20,2026-06-21,SYSBP,118.0,mmHg,9,
042-S06-008,23,WEEK20,2026-06-21,DIABP,81.0,mmHg,9,
042-S06-008,24,WEEK20,2026-06-21,PULSE,73.0,bpm,9,
042-S06-008,25,WEEK24,2026-07-18,SYSBP,138.0,mmHg,11,
042-S06-008,26,WEEK24,2026-07-18,DIABP,84.0,mmHg,11,
042-S06-008,27,WEEK24,2026-07-18,PULSE,63.0,bpm,11,
042-S06-008,28,EOS,2026-07-31,SYSBP,136.0,mmHg,12,
042-S06-008,29,EOS,2026-07-31,DIABP,64.0,mmHg,12,
042-S06-008,30,EOS,2026-07-31,PULSE,78.0,bpm,12,
042-S07-008,1,SCREENING,2026-01-01,SYSBP,137.0,mmHg,1,
042-S07-008,2,SCREENING,2026-01-01,DIABP,92.0,mmHg,1,
042-S07-008,3,SCREENING,2026-01-01,PULSE,62.0,bpm,1,
042-S07-008,4,BASELINE,2026-01-16,SYSBP,122.0,mmHg,1,
042-S07-008,5,BASELINE,2026-01-16,DIABP,87.0,mmHg,1,
042-S07-008,6,BASELINE,2026-01-16,PULSE,60.0,bpm,1,
042-S07-008,7,WEEK2,2026-01-27,SYSBP,142.0,mmHg,1,
042-S07-008,8,WEEK2,2026-01-27,DIABP,73.0,mmHg,1,
042-S07-008,9,WEEK2,2026-01-27,PULSE,80.0,bpm,1,
042-S07-008,10,WEEK4,2026-02-10,SYSBP,132.0,mmHg,2,
042-S07-008,11,WEEK4,2026-02-10,DIABP,91.0,mmHg,2,
042-S07-008,12,WEEK4,2026-02-10,PULSE,69.0,bpm,2,
042-S07-008,13,WEEK8,2026-03-22,SYSBP,136.0,mmHg,4,
042-S07-008,14,WEEK8,2026-03-22,DIABP,84.0,mmHg,4,
042-S07-008,15,WEEK8,2026-03-22,PULSE,75.0,bpm,4,
042-S07-008,16,WEEK12,2026-04-08,SYSBP,152.0,mmHg,5,
042-S07-008,17,WEEK12,2026-04-08,DIABP,88.0,mmHg,5,
042-S07-008,18,WEEK12,2026-04-08,PULSE,79.0,bpm,5,
042-S07-008,19,WEEK16,2026-05-06,SYSBP,135.0,mmHg,7,
042-S07-008,20,WEEK16,2026-05-06,DIABP,81.0,mmHg,7,
042-S07-008,21,WEEK16,2026-05-06,PULSE,72.0,bpm,7,
042-S07-008,22,WEEK20,2026-06-04,SYSBP,141.0,mmHg,8,
042-S07-008,23,WEEK20,2026-06-04,DIABP,78.0,mmHg,8,
042-S07-008,24,WEEK20,2026-06-04,PULSE,71.0,bpm,8,
042-S07-008,25,WEEK24,2026-07-01,SYSBP,124.0,mmHg,10,
042-S07-008,26,WEEK24,2026-07-01,DIABP,66.0,mmHg,10,
042-S07-008,27,WEEK24,2026-07-01,PULSE,78.0,bpm,10,
042-S07-008,28,EOS,2026-07-15,SYSBP,116.0,mmHg,11,
042-S07-008,29,EOS,2026-07-15,DIABP,85.0,mmHg,11,
042-S07-008,30,EOS,2026-07-15,PULSE,96.0,bpm,11,
042-S08-008,1,SCREENING,2026-01-06,SYSBP,126.0,mmHg,4,
042-S08-008,2,SCREENING,2026-01-06,DIABP,66.0,mmHg,4,
042-S08-008,3,SCREENING,2026-01-06,PULSE,71.0,bpm,4,
042-S08-008,4,BASELINE,2026-01-18,SYSBP,132.0,mmHg,4,
042-S08-008,5,BASELINE,2026-01-18,DIABP,83.0,mmHg,4,
042-S08-008,6,BASELINE,2026-01-18,PULSE,75.0,bpm,4,
042-S08-008,7,WEEK2,2026-01-22,SYSBP,127.0,mmHg,4,
042-S08-008,8,WEEK2,2026-01-22,DIABP,68.0,mmHg,4,
042-S08-008,9,WEEK2,2026-01-22,PULSE,63.0,bpm,4,
042-S08-008,10,WEEK4,2026-02-15,SYSBP,106.0,mmHg,5,
042-S08-008,11,WEEK4,2026-02-15,DIABP,77.0,mmHg,5,
042-S08-008,12,WEEK4,2026-02-15,PULSE,66.0,bpm,5,
042-S08-008,13,WEEK8,2026-03-13,SYSBP,130.0,mmHg,7,
042-S08-008,14,WEEK8,2026-03-13,DIABP,75.0,mmHg,7,
042-S08-008,15,WEEK8,2026-03-13,PULSE,85.0,bpm,7,
042-S08-008,16,WEEK12,2026-04-10,SYSBP,127.0,mmHg,8,
042-S08-008,17,WEEK12,2026-04-10,DIABP,76.0,mmHg,8,
042-S08-008,18,WEEK12,2026-04-10,PULSE,65.0,bpm,8,
042-S08-008,19,WEEK16,2026-05-08,SYSBP,118.0,mmHg,10,
042-S08-008,20,WEEK16,2026-05-08,DIABP,78.0,mmHg,10,
042-S08-008,21,WEEK16,2026-05-08,PULSE,78.0,bpm,10,
042-S08-008,22,WEEK20,2026-06-07,SYSBP,139.0,mmHg,12,
042-S08-008,23,WEEK20,2026-06-07,DIABP,77.0,mmHg,12,
042-S08-008,24,WEEK20,2026-06-07,PULSE,66.0,bpm,12,
042-S08-008,25,WEEK24,2026-07-06,SYSBP,132.0,mmHg,13,
042-S08-008,26,WEEK24,2026-07-06,DIABP,81.0,mmHg,13,
042-S08-008,27,WEEK24,2026-07-06,PULSE,62.0,bpm,13,
042-S08-008,28,EOS,2026-07-20,SYSBP,128.0,mmHg,14,
042-S08-008,29,EOS,2026-07-20,DIABP,79.0,mmHg,14,
042-S08-008,30,EOS,2026-07-20,PULSE,71.0,bpm,14,
042-S09-008,1,SCREENING,2026-01-17,SYSBP,125.0,mmHg,1,
042-S09-008,2,SCREENING,2026-01-17,DIABP,71.0,mmHg,1,
042-S09-008,3,SCREENING,2026-01-17,PULSE,75.0,bpm,1,
042-S09-008,4,BASELINE,2026-01-27,SYSBP,118.0,mmHg,1,
042-S09-008,5,BASELINE,2026-01-27,DIABP,78.0,mmHg,1,
042-S09-008,6,BASELINE,2026-01-27,PULSE,74.0,bpm,1,
042-S09-008,7,WEEK2,2026-02-10,SYSBP,133.0,mmHg,2,
042-S09-008,8,WEEK2,2026-02-10,DIABP,78.0,mmHg,2,
042-S09-008,9,WEEK2,2026-02-10,PULSE,65.0,bpm,2,
042-S09-008,10,WEEK4,2026-02-26,SYSBP,137.0,mmHg,3,
042-S09-008,11,WEEK4,2026-02-26,DIABP,82.0,mmHg,3,
042-S09-008,12,WEEK4,2026-02-26,PULSE,61.0,bpm,3,
042-S09-008,13,WEEK8,2026-03-24,SYSBP,132.0,mmHg,4,
042-S09-008,14,WEEK8,2026-03-24,DIABP,69.0,mmHg,4,
042-S09-008,15,WEEK8,2026-03-24,PULSE,81.0,bpm,4,
042-S09-008,16,WEEK12,2026-04-21,SYSBP,140.0,mmHg,6,
042-S09-008,17,WEEK12,2026-04-21,DIABP,84.0,mmHg,6,
042-S09-008,18,WEEK12,2026-04-21,PULSE,81.0,bpm,6,
042-S09-008,19,WEEK16,2026-05-20,SYSBP,132.0,mmHg,8,
042-S09-008,20,WEEK16,2026-05-20,DIABP,81.0,mmHg,8,
042-S09-008,21,WEEK16,2026-05-20,PULSE,69.0,bpm,8,
042-S09-008,22,WEEK20,2026-06-17,SYSBP,132.0,mmHg,9,
042-S09-008,23,WEEK20,2026-06-17,DIABP,77.0,mmHg,9,
042-S09-008,24,WEEK20,2026-06-17,PULSE,80.0,bpm,9,
042-S09-008,25,WEEK24,2026-07-18,SYSBP,124.0,mmHg,11,
042-S09-008,26,WEEK24,2026-07-18,DIABP,87.0,mmHg,11,
042-S09-008,27,WEEK24,2026-07-18,PULSE,74.0,bpm,11,
042-S09-008,28,EOS,2026-07-31,SYSBP,112.0,mmHg,12,
042-S09-008,29,EOS,2026-07-31,DIABP,79.0,mmHg,12,
042-S09-008,30,EOS,2026-07-31,PULSE,55.0,bpm,12,
042-S10-008,1,SCREENING,2025-12-31,SYSBP,126.0,mmHg,1,
042-S10-008,2,SCREENING,2025-12-31,DIABP,82.0,mmHg,1,
042-S10-008,3,SCREENING,2025-12-31,PULSE,84.0,bpm,1,
042-S10-008,4,BASELINE,2026-01-13,SYSBP,112.0,mmHg,1,
042-S10-008,5,BASELINE,2026-01-13,DIABP,80.0,mmHg,1,
042-S10-008,6,BASELINE,2026-01-13,PULSE,54.0,bpm,1,
042-S10-008,7,WEEK2,2026-01-21,SYSBP,132.0,mmHg,1,
042-S10-008,8,WEEK2,2026-01-21,DIABP,77.0,mmHg,1,
042-S10-008,9,WEEK2,2026-01-21,PULSE,80.0,bpm,1,
042-S10-008,10,WEEK4,2026-02-07,SYSBP,121.0,mmHg,2,
042-S10-008,11,WEEK4,2026-02-07,DIABP,85.0,mmHg,2,
042-S10-008,12,WEEK4,2026-02-07,PULSE,79.0,bpm,2,
042-S10-008,13,WEEK8,2026-03-07,SYSBP,130.0,mmHg,4,
042-S10-008,14,WEEK8,2026-03-07,DIABP,80.0,mmHg,4,
042-S10-008,15,WEEK8,2026-03-07,PULSE,83.0,bpm,4,
042-S10-008,16,WEEK12,2026-04-07,SYSBP,131.0,mmHg,5,
042-S10-008,17,WEEK12,2026-04-07,DIABP,61.0,mmHg,5,
042-S10-008,18,WEEK12,2026-04-07,PULSE,79.0,bpm,5,
042-S10-008,19,WEEK16,2026-05-02,SYSBP,137.0,mmHg,7,
042-S10-008,20,WEEK16,2026-05-02,DIABP,93.0,mmHg,7,
042-S10-008,21,WEEK16,2026-05-02,PULSE,58.0,bpm,7,
042-S10-008,22,WEEK20,2026-06-01,SYSBP,143.0,mmHg,8,
042-S10-008,23,WEEK20,2026-06-01,DIABP,80.0,mmHg,8,
042-S10-008,24,WEEK20,2026-06-01,PULSE,58.0,bpm,8,
042-S10-008,25,WEEK24,2026-06-28,SYSBP,131.0,mmHg,10,
042-S10-008,26,WEEK24,2026-06-28,DIABP,86.0,mmHg,10,
042-S10-008,27,WEEK24,2026-06-28,PULSE,72.0,bpm,10,
042-S10-008,28,EOS,2026-07-14,SYSBP,131.0,mmHg,11,
042-S10-008,29,EOS,2026-07-14,DIABP,75.0,mmHg,11,
042-S10-008,30,EOS,2026-07-14,PULSE,64.0,bpm,11,
042-S11-008,1,SCREENING,2026-01-13,SYSBP,127.0,mmHg,6,
042-S11-008,2,SCREENING,2026-01-13,DIABP,81.0,mmHg,6,
042-S11-008,3,SCREENING,2026-01-13,PULSE,72.0,bpm,6,
042-S11-008,4,BASELINE,2026-01-27,SYSBP,128.0,mmHg,6,
042-S11-008,5,BASELINE,2026-01-27,DIABP,79.0,mmHg,6,
042-S11-008,6,BASELINE,2026-01-27,PULSE,72.0,bpm,6,
042-S11-008,7,WEEK2,2026-02-10,SYSBP,129.0,mmHg,6,
042-S11-008,8,WEEK2,2026-02-10,DIABP,79.0,mmHg,6,
042-S11-008,9,WEEK2,2026-02-10,PULSE,71.0,bpm,6,
042-S11-008,10,WEEK4,2026-02-24,SYSBP,129.0,mmHg,6,
042-S11-008,11,WEEK4,2026-02-24,DIABP,79.0,mmHg,6,
042-S11-008,12,WEEK4,2026-02-24,PULSE,71.0,bpm,6,
042-S11-008,13,WEEK8,2026-03-24,SYSBP,129.0,mmHg,6,
042-S11-008,14,WEEK8,2026-03-24,DIABP,79.0,mmHg,6,
042-S11-008,15,WEEK8,2026-03-24,PULSE,72.0,bpm,6,
042-S11-008,16,WEEK12,2026-04-21,SYSBP,127.0,mmHg,6,
042-S11-008,17,WEEK12,2026-04-21,DIABP,80.0,mmHg,6,
042-S11-008,18,WEEK12,2026-04-21,PULSE,71.0,bpm,6,
042-S11-008,19,WEEK16,2026-05-19,SYSBP,129.0,mmHg,8,
042-S11-008,20,WEEK16,2026-05-19,DIABP,80.0,mmHg,8,
042-S11-008,21,WEEK16,2026-05-19,PULSE,71.0,bpm,8,
042-S11-008,22,WEEK20,2026-06-16,SYSBP,127.0,mmHg,9,
042-S11-008,23,WEEK20,2026-06-16,DIABP,79.0,mmHg,9,
042-S11-008,24,WEEK20,2026-06-16,PULSE,72.0,bpm,9,
042-S11-008,25,WEEK24,2026-07-14,SYSBP,127.0,mmHg,11,
042-S11-008,26,WEEK24,2026-07-14,DIABP,79.0,mmHg,11,
042-S11-008,27,WEEK24,2026-07-14,PULSE,73.0,bpm,11,
042-S11-008,28,EOS,2026-07-28,SYSBP,128.0,mmHg,11,
042-S11-008,29,EOS,2026-07-28,DIABP,80.0,mmHg,11,
042-S11-008,30,EOS,2026-07-28,PULSE,72.0,bpm,11,
042-S12-008,1,SCREENING,2026-01-04,SYSBP,127.0,mmHg,1,
042-S12-008,2,SCREENING,2026-01-04,DIABP,83.0,mmHg,1,
042-S12-008,3,SCREENING,2026-01-04,PULSE,78.0,bpm,1,
042-S12-008,4,BASELINE,2026-01-20,SYSBP,137.0,mmHg,1,
042-S12-008,5,BASELINE,2026-01-20,DIABP,84.0,mmHg,1,
042-S12-008,6,BASELINE,2026-01-20,PULSE,66.0,bpm,1,
042-S12-008,7,WEEK2,2026-02-03,SYSBP,142.0,mmHg,2,
042-S12-008,8,WEEK2,2026-02-03,DIABP,67.0,mmHg,2,
042-S12-008,9,WEEK2,2026-02-03,PULSE,70.0,bpm,2,
042-S12-008,10,WEEK4,2026-02-15,SYSBP,132.0,mmHg,2,
042-S12-008,11,WEEK4,2026-02-15,DIABP,70.0,mmHg,2,
042-S12-008,12,WEEK4,2026-02-15,PULSE,71.0,bpm,2,
042-S12-008,13,WEEK8,2026-03-19,SYSBP,142.0,mmHg,4,
042-S12-008,14,WEEK8,2026-03-19,DIABP,73.0,mmHg,4,
042-S12-008,15,WEEK8,2026-03-19,PULSE,60.0,bpm,4,
042-S12-008,16,WEEK12,2026-04-12,SYSBP,126.0,mmHg,6,
042-S12-008,17,WEEK12,2026-04-12,DIABP,78.0,mmHg,6,
042-S12-008,18,WEEK12,2026-04-12,PULSE,64.0,bpm,6,
042-S12-008,19,WEEK16,2026-05-12,SYSBP,138.0,mmHg,7,
042-S12-008,20,WEEK16,2026-05-12,DIABP,92.0,mmHg,7,
042-S12-008,21,WEEK16,2026-05-12,PULSE,83.0,bpm,7,
042-S12-008,22,WEEK20,2026-06-10,SYSBP,132.0,mmHg,9,
042-S12-008,23,WEEK20,2026-06-10,DIABP,80.0,mmHg,9,
042-S12-008,24,WEEK20,2026-06-10,PULSE,78.0,bpm,9,
042-S12-008,25,WEEK24,2026-07-08,SYSBP,123.0,mmHg,10,
042-S12-008,26,WEEK24,2026-07-08,DIABP,78.0,mmHg,10,
042-S12-008,27,WEEK24,2026-07-08,PULSE,73.0,bpm,10,
042-S12-008,28,EOS,2026-07-22,SYSBP,127.0,mmHg,11,
042-S12-008,29,EOS,2026-07-22,DIABP,79.0,mmHg,11,
042-S12-008,30,EOS,2026-07-22,PULSE,72.0,bpm,11,
042-S01-009,1,SCREENING,2026-01-09,SYSBP,134.0,mmHg,1,
042-S01-009,2,SCREENING,2026-01-09,DIABP,68.0,mmHg,1,
042-S01-009,3,SCREENING,2026-01-09,PULSE,80.0,bpm,1,
042-S01-009,4,BASELINE,2026-01-21,SYSBP,119.0,mmHg,1,
042-S01-009,5,BASELINE,2026-01-21,DIABP,82.0,mmHg,1,
042-S01-009,6,BASELINE,2026-01-21,PULSE,68.0,bpm,1,
042-S01-009,7,WEEK2,2026-02-04,SYSBP,136.0,mmHg,2,
042-S01-009,8,WEEK2,2026-02-04,DIABP,63.0,mmHg,2,
042-S01-009,9,WEEK2,2026-02-04,PULSE,76.0,bpm,2,
042-S01-009,10,WEEK4,2026-02-19,SYSBP,124.0,mmHg,3,
042-S01-009,11,WEEK4,2026-02-19,DIABP,78.0,mmHg,3,
042-S01-009,12,WEEK4,2026-02-19,PULSE,87.0,bpm,3,
042-S01-009,13,WEEK8,2026-03-18,SYSBP,131.0,mmHg,4,
042-S01-009,14,WEEK8,2026-03-18,DIABP,76.0,mmHg,4,
042-S01-009,15,WEEK8,2026-03-18,PULSE,70.0,bpm,4,
042-S01-009,16,WEEK12,2026-04-17,SYSBP,122.0,mmHg,6,
042-S01-009,17,WEEK12,2026-04-17,DIABP,85.0,mmHg,6,
042-S01-009,18,WEEK12,2026-04-17,PULSE,67.0,bpm,6,
042-S01-009,19,WEEK16,2026-05-10,SYSBP,129.0,mmHg,7,
042-S01-009,20,WEEK16,2026-05-10,DIABP,83.0,mmHg,7,
042-S01-009,21,WEEK16,2026-05-10,PULSE,71.0,bpm,7,
042-S01-009,22,WEEK20,2026-06-12,SYSBP,124.0,mmHg,9,
042-S01-009,23,WEEK20,2026-06-12,DIABP,93.0,mmHg,9,
042-S01-009,24,WEEK20,2026-06-12,PULSE,56.0,bpm,9,
042-S01-009,25,WEEK24,2026-07-11,SYSBP,136.0,mmHg,11,
042-S01-009,26,WEEK24,2026-07-11,DIABP,79.0,mmHg,11,
042-S01-009,27,WEEK24,2026-07-11,PULSE,72.0,bpm,11,
042-S01-009,28,EOS,2026-07-23,SYSBP,143.0,mmHg,11,
042-S01-009,29,EOS,2026-07-23,DIABP,94.0,mmHg,11,
042-S01-009,30,EOS,2026-07-23,PULSE,74.0,bpm,11,
042-S02-009,1,SCREENING,2026-01-01,SYSBP,129.0,mmHg,1,
042-S02-009,2,SCREENING,2026-01-01,DIABP,69.0,mmHg,1,
042-S02-009,3,SCREENING,2026-01-01,PULSE,60.0,bpm,1,
042-S02-009,4,BASELINE,2026-01-15,SYSBP,125.0,mmHg,1,
042-S02-009,5,BASELINE,2026-01-15,DIABP,82.0,mmHg,1,
042-S02-009,6,BASELINE,2026-01-15,PULSE,69.0,bpm,1,
042-S02-009,7,WEEK2,2026-02-02,SYSBP,125.0,mmHg,2,
042-S02-009,8,WEEK2,2026-02-02,DIABP,87.0,mmHg,2,
042-S02-009,9,WEEK2,2026-02-02,PULSE,66.0,bpm,2,
042-S02-009,10,WEEK4,2026-02-12,SYSBP,124.0,mmHg,2,
042-S02-009,11,WEEK4,2026-02-12,DIABP,57.0,mmHg,2,
042-S02-009,12,WEEK4,2026-02-12,PULSE,62.0,bpm,2,
042-S02-009,13,WEEK8,2026-03-25,SYSBP,130.0,mmHg,5,
042-S02-009,14,WEEK8,2026-03-25,DIABP,67.0,mmHg,5,
042-S02-009,15,WEEK8,2026-03-25,PULSE,72.0,bpm,5,
042-S02-009,16,WEEK12,2026-04-10,SYSBP,136.0,mmHg,5,
042-S02-009,17,WEEK12,2026-04-10,DIABP,73.0,mmHg,5,
042-S02-009,18,WEEK12,2026-04-10,PULSE,82.0,bpm,5,
042-S02-009,19,WEEK16,2026-05-07,SYSBP,124.0,mmHg,7,
042-S02-009,20,WEEK16,2026-05-07,DIABP,77.0,mmHg,7,
042-S02-009,21,WEEK16,2026-05-07,PULSE,70.0,bpm,7,
042-S02-009,22,WEEK20,2026-06-04,SYSBP,137.0,mmHg,8,
042-S02-009,23,WEEK20,2026-06-04,DIABP,65.0,mmHg,8,
042-S02-009,24,WEEK20,2026-06-04,PULSE,62.0,bpm,8,
042-S02-009,25,WEEK24,2026-07-02,SYSBP,140.0,mmHg,10,
042-S02-009,26,WEEK24,2026-07-02,DIABP,90.0,mmHg,10,
042-S02-009,27,WEEK24,2026-07-02,PULSE,68.0,bpm,10,
042-S02-009,28,EOS,2026-07-09,SYSBP,117.0,mmHg,10,
042-S02-009,29,EOS,2026-07-09,DIABP,73.0,mmHg,10,
042-S02-009,30,EOS,2026-07-09,PULSE,75.0,bpm,10,
042-S03-009,1,SCREENING,05-JAN-2026,SYSBP,128.0,mmHg,1,
042-S03-009,2,SCREENING,05-JAN-2026,DIABP,82.0,mmHg,1,
042-S03-009,3,SCREENING,05-JAN-2026,PULSE,72.0,bpm,1,
042-S03-009,4,BASELINE,19-JAN-2026,SYSBP,133.0,mmHg,1,
042-S03-009,5,BASELINE,19-JAN-2026,DIABP,72.0,mmHg,1,
042-S03-009,6,BASELINE,19-JAN-2026,PULSE,76.0,bpm,1,
042-S03-009,7,WEEK2,03-FEB-2026,SYSBP,132.0,mmHg,2,
042-S03-009,8,WEEK2,03-FEB-2026,DIABP,90.0,mmHg,2,
042-S03-009,9,WEEK2,03-FEB-2026,PULSE,81.0,bpm,2,
042-S03-009,10,WEEK4,21-FEB-2026,SYSBP,120.0,mmHg,3,
042-S03-009,11,WEEK4,21-FEB-2026,DIABP,67.0,mmHg,3,
042-S03-009,12,WEEK4,21-FEB-2026,PULSE,64.0,bpm,3,
042-S03-009,13,WEEK8,18-MAR-2026,SYSBP,133.0,mmHg,4,
042-S03-009,14,WEEK8,18-MAR-2026,DIABP,90.0,mmHg,4,
042-S03-009,15,WEEK8,18-MAR-2026,PULSE,77.0,bpm,4,
042-S03-009,16,WEEK12,15-APR-2026,SYSBP,121.0,mmHg,6,
042-S03-009,17,WEEK12,15-APR-2026,DIABP,60.0,mmHg,6,
042-S03-009,18,WEEK12,15-APR-2026,PULSE,80.0,bpm,6,
042-S03-009,19,WEEK16,09-MAY-2026,SYSBP,134.0,mmHg,7,
042-S03-009,20,WEEK16,09-MAY-2026,DIABP,72.0,mmHg,7,
042-S03-009,21,WEEK16,09-MAY-2026,PULSE,84.0,bpm,7,
042-S03-009,22,WEEK20,09-JUN-2026,SYSBP,129.0,mmHg,9,
042-S03-009,23,WEEK20,09-JUN-2026,DIABP,92.0,mmHg,9,
042-S03-009,24,WEEK20,09-JUN-2026,PULSE,63.0,bpm,9,
042-S03-009,25,WEEK24,08-JUL-2026,SYSBP,124.0,mmHg,10,
042-S03-009,26,WEEK24,08-JUL-2026,DIABP,83.0,mmHg,10,
042-S03-009,27,WEEK24,08-JUL-2026,PULSE,82.0,bpm,10,
042-S03-009,28,EOS,20-JUL-2026,SYSBP,135.0,mmHg,11,
042-S03-009,29,EOS,20-JUL-2026,DIABP,80.0,mmHg,11,
042-S03-009,30,EOS,20-JUL-2026,PULSE,82.0,bpm,11,
042-S04-009,1,SCREENING,2026-01-15,SYSBP,135.0,mmHg,1,
042-S04-009,2,SCREENING,2026-01-15,DIABP,64.0,mmHg,1,
042-S04-009,3,SCREENING,2026-01-15,PULSE,66.0,bpm,1,
042-S04-009,4,BASELINE,2026-01-27,SYSBP,119.0,mmHg,1,
042-S04-009,5,BASELINE,2026-01-27,DIABP,73.0,mmHg,1,
042-S04-009,6,BASELINE,2026-01-27,PULSE,86.0,bpm,1,
042-S04-009,7,WEEK2,2026-02-12,SYSBP,130.0,mmHg,2,
042-S04-009,8,WEEK2,2026-02-12,DIABP,86.0,mmHg,2,
042-S04-009,9,WEEK2,2026-02-12,PULSE,69.0,bpm,2,
042-S04-009,10,WEEK4,2026-02-24,SYSBP,137.0,mmHg,3,
042-S04-009,11,WEEK4,2026-02-24,DIABP,70.0,mmHg,3,
042-S04-009,12,WEEK4,2026-02-24,PULSE,80.0,bpm,3,
042-S04-009,13,WEEK8,2026-04-02,SYSBP,123.0,mmHg,5,
042-S04-009,14,WEEK8,2026-04-02,DIABP,78.0,mmHg,5,
042-S04-009,15,WEEK8,2026-04-02,PULSE,73.0,bpm,5,
042-S04-009,16,WEEK12,2026-04-20,SYSBP,127.0,mmHg,6,
042-S04-009,17,WEEK12,2026-04-20,DIABP,80.0,mmHg,6,
042-S04-009,18,WEEK12,2026-04-20,PULSE,68.0,bpm,6,
042-S04-009,19,WEEK16,2026-05-19,SYSBP,147.0,mmHg,8,
042-S04-009,20,WEEK16,2026-05-19,DIABP,83.0,mmHg,8,
042-S04-009,21,WEEK16,2026-05-19,PULSE,84.0,bpm,8,
042-S04-009,22,WEEK20,2026-06-17,SYSBP,134.0,mmHg,9,
042-S04-009,23,WEEK20,2026-06-17,DIABP,75.0,mmHg,9,
042-S04-009,24,WEEK20,2026-06-17,PULSE,73.0,bpm,9,
042-S04-009,25,WEEK24,2026-07-13,SYSBP,132.0,mmHg,11,
042-S04-009,26,WEEK24,2026-07-13,DIABP,67.0,mmHg,11,
042-S04-009,27,WEEK24,2026-07-13,PULSE,73.0,bpm,11,
042-S04-009,28,EOS,2026-07-27,SYSBP,131.0,mmHg,11,
042-S04-009,29,EOS,2026-07-27,DIABP,78.0,mmHg,11,
042-S04-009,30,EOS,2026-07-27,PULSE,72.0,bpm,11,
042-S05-009,1,SCREENING,2026-01-14,SYSBP,119.0,mmHg,1,
042-S05-009,2,SCREENING,2026-01-14,DIABP,72.0,mmHg,1,
042-S05-009,3,SCREENING,2026-01-14,PULSE,78.0,bpm,1,
042-S05-009,4,BASELINE,2026-01-24,SYSBP,130.0,mmHg,1,
042-S05-009,5,BASELINE,2026-01-24,DIABP,75.0,mmHg,1,
042-S05-009,6,BASELINE,2026-01-24,PULSE,68.0,bpm,1,
042-S05-009,7,WEEK2,2026-02-07,SYSBP,126.0,mmHg,2,
042-S05-009,8,WEEK2,2026-02-07,DIABP,93.0,mmHg,2,
042-S05-009,9,WEEK2,2026-02-07,PULSE,75.0,bpm,2,
042-S05-009,10,WEEK4,2026-02-23,SYSBP,135.0,mmHg,3,
042-S05-009,11,WEEK4,2026-02-23,DIABP,93.0,mmHg,3,
042-S05-009,12,WEEK4,2026-02-23,PULSE,61.0,bpm,3,
042-S05-009,13,WEEK8,2026-03-23,SYSBP,132.0,mmHg,4,
042-S05-009,14,WEEK8,2026-03-23,DIABP,73.0,mmHg,4,
042-S05-009,15,WEEK8,2026-03-23,PULSE,63.0,bpm,4,
042-S05-009,16,WEEK12,2026-04-20,SYSBP,130.0,mmHg,6,
042-S05-009,17,WEEK12,2026-04-20,DIABP,94.0,mmHg,6,
042-S05-009,18,WEEK12,2026-04-20,PULSE,81.0,bpm,6,
042-S05-009,19,WEEK16,2026-05-24,SYSBP,125.0,mmHg,8,
042-S05-009,20,WEEK16,2026-05-24,DIABP,83.0,mmHg,8,
042-S05-009,21,WEEK16,2026-05-24,PULSE,77.0,bpm,8,
042-S05-009,22,WEEK20,2026-06-16,SYSBP,120.0,mmHg,9,
042-S05-009,23,WEEK20,2026-06-16,DIABP,84.0,mmHg,9,
042-S05-009,24,WEEK20,2026-06-16,PULSE,77.0,bpm,9,
042-S05-009,25,WEEK24,2026-07-13,SYSBP,134.0,mmHg,11,
042-S05-009,26,WEEK24,2026-07-13,DIABP,84.0,mmHg,11,
042-S05-009,27,WEEK24,2026-07-13,PULSE,82.0,bpm,11,
042-S05-009,28,EOS,2026-07-25,SYSBP,127.0,mmHg,11,
042-S05-009,29,EOS,2026-07-25,DIABP,82.0,mmHg,11,
042-S05-009,30,EOS,2026-07-25,PULSE,86.0,bpm,11,
042-S06-009,1,SCREENING,2025-12-28,SYSBP,125.0,mmHg,1,
042-S06-009,2,SCREENING,2025-12-28,DIABP,86.0,mmHg,1,
042-S06-009,3,SCREENING,2025-12-28,PULSE,62.0,bpm,1,
042-S06-009,4,BASELINE,2026-01-10,SYSBP,133.0,mmHg,1,
042-S06-009,5,BASELINE,2026-01-10,DIABP,69.0,mmHg,1,
042-S06-009,6,BASELINE,2026-01-10,PULSE,77.0,bpm,1,
042-S06-009,7,WEEK2,2026-01-25,SYSBP,140.0,mmHg,1,
042-S06-009,8,WEEK2,2026-01-25,DIABP,80.0,mmHg,1,
042-S06-009,9,WEEK2,2026-01-25,PULSE,80.0,bpm,1,
042-S06-009,10,WEEK4,2026-02-07,SYSBP,136.0,mmHg,2,
042-S06-009,11,WEEK4,2026-02-07,DIABP,74.0,mmHg,2,
042-S06-009,12,WEEK4,2026-02-07,PULSE,64.0,bpm,2,
042-S06-009,13,WEEK8,2026-03-09,SYSBP,137.0,mmHg,4,
042-S06-009,14,WEEK8,2026-03-09,DIABP,67.0,mmHg,4,
042-S06-009,15,WEEK8,2026-03-09,PULSE,54.0,bpm,4,
042-S06-009,16,WEEK12,2026-04-06,SYSBP,121.0,mmHg,5,
042-S06-009,17,WEEK12,2026-04-06,DIABP,78.0,mmHg,5,
042-S06-009,18,WEEK12,2026-04-06,PULSE,88.0,bpm,5,
042-S06-009,19,WEEK16,2026-05-04,SYSBP,129.0,mmHg,7,
042-S06-009,20,WEEK16,2026-05-04,DIABP,85.0,mmHg,7,
042-S06-009,21,WEEK16,2026-05-04,PULSE,74.0,bpm,7,
042-S06-009,22,WEEK20,2026-06-02,SYSBP,126.0,mmHg,8,
042-S06-009,23,WEEK20,2026-06-02,DIABP,75.0,mmHg,8,
042-S06-009,24,WEEK20,2026-06-02,PULSE,58.0,bpm,8,
042-S06-009,25,WEEK24,2026-06-28,SYSBP,137.0,mmHg,10,
042-S06-009,26,WEEK24,2026-06-28,DIABP,67.0,mmHg,10,
042-S06-009,27,WEEK24,2026-06-28,PULSE,53.0,bpm,10,
042-S06-009,28,EOS,2026-07-12,SYSBP,122.0,mmHg,11,
042-S06-009,29,EOS,2026-07-12,DIABP,73.0,mmHg,11,
042-S06-009,30,EOS,2026-07-12,PULSE,47.0,bpm,11,
042-S07-009,1,SCREENING,2026-01-09,SYSBP,120.0,mmHg,1,
042-S07-009,2,SCREENING,2026-01-09,DIABP,79.0,mmHg,1,
042-S07-009,3,SCREENING,2026-01-09,PULSE,74.0,bpm,1,
042-S07-009,4,BASELINE,2026-01-24,SYSBP,127.0,mmHg,1,
042-S07-009,5,BASELINE,2026-01-24,DIABP,96.0,mmHg,1,
042-S07-009,6,BASELINE,2026-01-24,PULSE,73.0,bpm,1,
042-S07-009,7,WEEK2,2026-02-04,SYSBP,122.0,mmHg,2,
042-S07-009,8,WEEK2,2026-02-04,DIABP,100.0,mmHg,2,
042-S07-009,9,WEEK2,2026-02-04,PULSE,76.0,bpm,2,
042-S07-009,10,WEEK4,2026-02-23,SYSBP,122.0,mmHg,3,
042-S07-009,11,WEEK4,2026-02-23,DIABP,91.0,mmHg,3,
042-S07-009,12,WEEK4,2026-02-23,PULSE,77.0,bpm,3,
042-S07-009,13,WEEK8,2026-03-21,SYSBP,134.0,mmHg,4,
042-S07-009,14,WEEK8,2026-03-21,DIABP,82.0,mmHg,4,
042-S07-009,15,WEEK8,2026-03-21,PULSE,72.0,bpm,4,
042-S07-009,16,WEEK12,2026-04-17,SYSBP,123.0,mmHg,6,
042-S07-009,17,WEEK12,2026-04-17,DIABP,82.0,mmHg,6,
042-S07-009,18,WEEK12,2026-04-17,PULSE,67.0,bpm,6,
042-S07-009,19,WEEK16,2026-05-12,SYSBP,119.0,mmHg,7,
042-S07-009,20,WEEK16,2026-05-12,DIABP,84.0,mmHg,7,
042-S07-009,21,WEEK16,2026-05-12,PULSE,70.0,bpm,7,
042-S07-009,22,WEEK20,2026-06-11,SYSBP,138.0,mmHg,9,
042-S07-009,23,WEEK20,2026-06-11,DIABP,70.0,mmHg,9,
042-S07-009,24,WEEK20,2026-06-11,PULSE,74.0,bpm,9,
042-S07-009,25,WEEK24,2026-07-11,SYSBP,124.0,mmHg,11,
042-S07-009,26,WEEK24,2026-07-11,DIABP,80.0,mmHg,11,
042-S07-009,27,WEEK24,2026-07-11,PULSE,78.0,bpm,11,
042-S07-009,28,EOS,2026-07-21,SYSBP,133.0,mmHg,11,
042-S07-009,29,EOS,2026-07-21,DIABP,87.0,mmHg,11,
042-S07-009,30,EOS,2026-07-21,PULSE,67.0,bpm,11,
042-S08-009,1,SCREENING,2026-01-12,SYSBP,135.0,mmHg,4,
042-S08-009,2,SCREENING,2026-01-12,DIABP,72.0,mmHg,4,
042-S08-009,3,SCREENING,2026-01-12,PULSE,65.0,bpm,4,
042-S08-009,4,BASELINE,2026-01-24,SYSBP,134.0,mmHg,4,
042-S08-009,5,BASELINE,2026-01-24,DIABP,71.0,mmHg,4,
042-S08-009,6,BASELINE,2026-01-24,PULSE,69.0,bpm,4,
042-S08-009,7,WEEK2,2026-02-07,SYSBP,144.0,mmHg,5,
042-S08-009,8,WEEK2,2026-02-07,DIABP,90.0,mmHg,5,
042-S08-009,9,WEEK2,2026-02-07,PULSE,67.0,bpm,5,
042-S08-009,10,WEEK4,2026-02-24,SYSBP,138.0,mmHg,6,
042-S08-009,11,WEEK4,2026-02-24,DIABP,84.0,mmHg,6,
042-S08-009,12,WEEK4,2026-02-24,PULSE,73.0,bpm,6,
042-S08-009,13,WEEK8,2026-03-23,SYSBP,134.0,mmHg,7,
042-S08-009,14,WEEK8,2026-03-23,DIABP,77.0,mmHg,7,
042-S08-009,15,WEEK8,2026-03-23,PULSE,68.0,bpm,7,
042-S08-009,16,WEEK12,2026-04-19,SYSBP,118.0,mmHg,9,
042-S08-009,17,WEEK12,2026-04-19,DIABP,64.0,mmHg,9,
042-S08-009,18,WEEK12,2026-04-19,PULSE,79.0,bpm,9,
042-S08-009,19,WEEK16,2026-05-15,SYSBP,121.0,mmHg,10,
042-S08-009,20,WEEK16,2026-05-15,DIABP,88.0,mmHg,10,
042-S08-009,21,WEEK16,2026-05-15,PULSE,78.0,bpm,10,
042-S08-009,22,WEEK20,2026-06-14,SYSBP,128.0,mmHg,12,
042-S08-009,23,WEEK20,2026-06-14,DIABP,63.0,mmHg,12,
042-S08-009,24,WEEK20,2026-06-14,PULSE,74.0,bpm,12,
042-S08-009,25,WEEK24,2026-07-10,SYSBP,112.0,mmHg,13,
042-S08-009,26,WEEK24,2026-07-10,DIABP,83.0,mmHg,13,
042-S08-009,27,WEEK24,2026-07-10,PULSE,87.0,bpm,13,
042-S08-009,28,EOS,2026-07-25,SYSBP,136.0,mmHg,14,
042-S08-009,29,EOS,2026-07-25,DIABP,77.0,mmHg,14,
042-S08-009,30,EOS,2026-07-25,PULSE,71.0,bpm,14,
042-S09-009,1,SCREENING,2026-01-13,SYSBP,129.0,mmHg,1,
042-S09-009,2,SCREENING,2026-01-13,DIABP,80.0,mmHg,1,
042-S09-009,3,SCREENING,2026-01-13,PULSE,77.0,bpm,1,
042-S09-009,4,BASELINE,2026-01-25,SYSBP,130.0,mmHg,1,
042-S09-009,5,BASELINE,2026-01-25,DIABP,66.0,mmHg,1,
042-S09-009,6,BASELINE,2026-01-25,PULSE,63.0,bpm,1,
042-S09-009,7,WEEK2,2026-02-08,SYSBP,112.0,mmHg,2,
042-S09-009,8,WEEK2,2026-02-08,DIABP,88.0,mmHg,2,
042-S09-009,9,WEEK2,2026-02-08,PULSE,60.0,bpm,2,
042-S09-009,10,WEEK4,2026-02-21,SYSBP,139.0,mmHg,3,
042-S09-009,11,WEEK4,2026-02-21,DIABP,80.0,mmHg,3,
042-S09-009,12,WEEK4,2026-02-21,PULSE,52.0,bpm,3,
042-S09-009,13,WEEK8,2026-03-23,SYSBP,110.0,mmHg,4,
042-S09-009,14,WEEK8,2026-03-23,DIABP,74.0,mmHg,4,
042-S09-009,15,WEEK8,2026-03-23,PULSE,60.0,bpm,4,
042-S09-009,16,WEEK12,2026-04-18,SYSBP,121.0,mmHg,6,
042-S09-009,17,WEEK12,2026-04-18,DIABP,85.0,mmHg,6,
042-S09-009,18,WEEK12,2026-04-18,PULSE,76.0,bpm,6,
042-S09-009,19,WEEK16,2026-05-19,SYSBP,131.0,mmHg,8,
042-S09-009,20,WEEK16,2026-05-19,DIABP,85.0,mmHg,8,
042-S09-009,21,WEEK16,2026-05-19,PULSE,69.0,bpm,8,
042-S09-009,22,WEEK20,2026-06-15,SYSBP,150.0,mmHg,9,
042-S09-009,23,WEEK20,2026-06-15,DIABP,71.0,mmHg,9,
042-S09-009,24,WEEK20,2026-06-15,PULSE,76.0,bpm,9,
042-S09-009,25,WEEK24,2026-07-13,SYSBP,121.0,mmHg,11,
042-S09-009,26,WEEK24,2026-07-13,DIABP,87.0,mmHg,11,
042-S09-009,27,WEEK24,2026-07-13,PULSE,67.0,bpm,11,
042-S09-009,28,EOS,2026-07-27,SYSBP,124.0,mmHg,11,
042-S09-009,29,EOS,2026-07-27,DIABP,82.0,mmHg,11,
042-S09-009,30,EOS,2026-07-27,PULSE,77.0,bpm,11,
042-S10-009,1,SCREENING,2026-01-09,SYSBP,126.0,mmHg,1,
042-S10-009,2,SCREENING,2026-01-09,DIABP,82.0,mmHg,1,
042-S10-009,3,SCREENING,2026-01-09,PULSE,74.0,bpm,1,
042-S10-009,4,BASELINE,2026-01-24,SYSBP,126.0,mmHg,1,
042-S10-009,5,BASELINE,2026-01-24,DIABP,88.0,mmHg,1,
042-S10-009,6,BASELINE,2026-01-24,PULSE,74.0,bpm,1,
042-S10-009,7,WEEK2,2026-02-05,SYSBP,136.0,mmHg,2,
042-S10-009,8,WEEK2,2026-02-05,DIABP,71.0,mmHg,2,
042-S10-009,9,WEEK2,2026-02-05,PULSE,74.0,bpm,2,
042-S10-009,10,WEEK4,2026-02-19,SYSBP,132.0,mmHg,3,
042-S10-009,11,WEEK4,2026-02-19,DIABP,84.0,mmHg,3,
042-S10-009,12,WEEK4,2026-02-19,PULSE,80.0,bpm,3,
042-S10-009,13,WEEK8,2026-03-17,SYSBP,135.0,mmHg,4,
042-S10-009,14,WEEK8,2026-03-17,DIABP,80.0,mmHg,4,
042-S10-009,15,WEEK8,2026-03-17,PULSE,62.0,bpm,4,
042-S10-009,16,WEEK12,2026-04-22,SYSBP,132.0,mmHg,6,
042-S10-009,17,WEEK12,2026-04-22,DIABP,73.0,mmHg,6,
042-S10-009,18,WEEK12,2026-04-22,PULSE,74.0,bpm,6,
042-S10-009,19,WEEK16,2026-05-13,SYSBP,124.0,mmHg,7,
042-S10-009,20,WEEK16,2026-05-13,DIABP,82.0,mmHg,7,
042-S10-009,21,WEEK16,2026-05-13,PULSE,44.0,bpm,7,
042-S10-009,22,WEEK20,2026-06-10,SYSBP,125.0,mmHg,9,
042-S10-009,23,WEEK20,2026-06-10,DIABP,71.0,mmHg,9,
042-S10-009,24,WEEK20,2026-06-10,PULSE,73.0,bpm,9,
042-S10-009,25,WEEK24,2026-07-11,SYSBP,125.0,mmHg,11,
042-S10-009,26,WEEK24,2026-07-11,DIABP,71.0,mmHg,11,
042-S10-009,27,WEEK24,2026-07-11,PULSE,76.0,bpm,11,
042-S10-009,28,EOS,2026-07-22,SYSBP,129.0,mmHg,11,
042-S10-009,29,EOS,2026-07-22,DIABP,92.0,mmHg,11,
042-S10-009,30,EOS,2026-07-22,PULSE,81.0,bpm,11,
042-S11-009,1,SCREENING,2026-01-13,SYSBP,128.0,mmHg,6,
042-S11-009,2,SCREENING,2026-01-13,DIABP,81.0,mmHg,6,
042-S11-009,3,SCREENING,2026-01-13,PULSE,71.0,bpm,6,
042-S11-009,4,BASELINE,2026-01-27,SYSBP,128.0,mmHg,6,
042-S11-009,5,BASELINE,2026-01-27,DIABP,80.0,mmHg,6,
042-S11-009,6,BASELINE,2026-01-27,PULSE,71.0,bpm,6,
042-S11-009,7,WEEK2,2026-02-10,SYSBP,128.0,mmHg,6,
042-S11-009,8,WEEK2,2026-02-10,DIABP,80.0,mmHg,6,
042-S11-009,9,WEEK2,2026-02-10,PULSE,72.0,bpm,6,
042-S11-009,10,WEEK4,2026-02-24,SYSBP,127.0,mmHg,6,
042-S11-009,11,WEEK4,2026-02-24,DIABP,79.0,mmHg,6,
042-S11-009,12,WEEK4,2026-02-24,PULSE,71.0,bpm,6,
042-S11-009,13,WEEK8,2026-03-24,SYSBP,127.0,mmHg,6,
042-S11-009,14,WEEK8,2026-03-24,DIABP,81.0,mmHg,6,
042-S11-009,15,WEEK8,2026-03-24,PULSE,71.0,bpm,6,
042-S11-009,16,WEEK12,2026-04-21,SYSBP,128.0,mmHg,6,
042-S11-009,17,WEEK12,2026-04-21,DIABP,79.0,mmHg,6,
042-S11-009,18,WEEK12,2026-04-21,PULSE,71.0,bpm,6,
042-S11-009,19,WEEK16,2026-05-19,SYSBP,129.0,mmHg,8,
042-S11-009,20,WEEK16,2026-05-19,DIABP,79.0,mmHg,8,
042-S11-009,21,WEEK16,2026-05-19,PULSE,73.0,bpm,8,
042-S11-009,22,WEEK20,2026-06-16,SYSBP,128.0,mmHg,9,
042-S11-009,23,WEEK20,2026-06-16,DIABP,81.0,mmHg,9,
042-S11-009,24,WEEK20,2026-06-16,PULSE,73.0,bpm,9,
042-S11-009,25,WEEK24,2026-07-14,SYSBP,127.0,mmHg,11,
042-S11-009,26,WEEK24,2026-07-14,DIABP,81.0,mmHg,11,
042-S11-009,27,WEEK24,2026-07-14,PULSE,71.0,bpm,11,
042-S11-009,28,EOS,2026-07-28,SYSBP,128.0,mmHg,11,
042-S11-009,29,EOS,2026-07-28,DIABP,81.0,mmHg,11,
042-S11-009,30,EOS,2026-07-28,PULSE,71.0,bpm,11,
042-S12-009,1,SCREENING,2026-01-12,SYSBP,145.0,mmHg,1,
042-S12-009,2,SCREENING,2026-01-12,DIABP,81.0,mmHg,1,
042-S12-009,3,SCREENING,2026-01-12,PULSE,50.0,bpm,1,
042-S12-009,4,BASELINE,2026-01-29,SYSBP,131.0,mmHg,1,
042-S12-009,5,BASELINE,2026-01-29,DIABP,81.0,mmHg,1,
042-S12-009,6,BASELINE,2026-01-29,PULSE,62.0,bpm,1,
042-S12-009,7,WEEK2,2026-02-13,SYSBP,110.0,mmHg,2,
042-S12-009,8,WEEK2,2026-02-13,DIABP,83.0,mmHg,2,
042-S12-009,9,WEEK2,2026-02-13,PULSE,64.0,bpm,2,
042-S12-009,10,WEEK4,2026-02-27,SYSBP,125.0,mmHg,3,
042-S12-009,11,WEEK4,2026-02-27,DIABP,89.0,mmHg,3,
042-S12-009,12,WEEK4,2026-02-27,PULSE,60.0,bpm,3,
042-S12-009,13,WEEK8,2026-03-24,SYSBP,126.0,mmHg,4,
042-S12-009,14,WEEK8,2026-03-24,DIABP,79.0,mmHg,4,
042-S12-009,15,WEEK8,2026-03-24,PULSE,73.0,bpm,4,
042-S12-009,16,WEEK12,2026-04-20,SYSBP,128.0,mmHg,6,
042-S12-009,17,WEEK12,2026-04-20,DIABP,76.0,mmHg,6,
042-S12-009,18,WEEK12,2026-04-20,PULSE,68.0,bpm,6,
042-S12-009,19,WEEK16,2026-05-22,SYSBP,113.0,mmHg,8,
042-S12-009,20,WEEK16,2026-05-22,DIABP,62.0,mmHg,8,
042-S12-009,21,WEEK16,2026-05-22,PULSE,69.0,bpm,8,
042-S12-009,22,WEEK20,2026-06-19,SYSBP,107.0,mmHg,9,
042-S12-009,23,WEEK20,2026-06-19,DIABP,73.0,mmHg,9,
042-S12-009,24,WEEK20,2026-06-19,PULSE,86.0,bpm,9,
042-S12-009,25,WEEK24,2026-07-17,SYSBP,131.0,mmHg,11,
042-S12-009,26,WEEK24,2026-07-17,DIABP,71.0,mmHg,11,
042-S12-009,27,WEEK24,2026-07-17,PULSE,62.0,bpm,11,
042-S12-009,28,EOS,2026-07-30,SYSBP,123.0,mmHg,12,
042-S12-009,29,EOS,2026-07-30,DIABP,78.0,mmHg,12,
042-S12-009,30,EOS,2026-07-30,PULSE,72.0,bpm,12,
042-S01-010,1,SCREENING,2026-01-03,SYSBP,134.0,mmHg,1,
042-S01-010,2,SCREENING,2026-01-03,DIABP,80.0,mmHg,1,
042-S01-010,3,SCREENING,2026-01-03,PULSE,65.0,bpm,1,
042-S01-010,4,BASELINE,2026-01-16,SYSBP,117.0,mmHg,1,
042-S01-010,5,BASELINE,2026-01-16,DIABP,91.0,mmHg,1,
042-S01-010,6,BASELINE,2026-01-16,PULSE,64.0,bpm,1,
042-S01-010,7,WEEK2,2026-02-01,SYSBP,135.0,mmHg,2,
042-S01-010,8,WEEK2,2026-02-01,DIABP,75.0,mmHg,2,
042-S01-010,9,WEEK2,2026-02-01,PULSE,76.0,bpm,2,
042-S01-010,10,WEEK4,2026-02-11,SYSBP,132.0,mmHg,2,
042-S01-010,11,WEEK4,2026-02-11,DIABP,90.0,mmHg,2,
042-S01-010,12,WEEK4,2026-02-11,PULSE,79.0,bpm,2,
042-S01-010,13,WEEK8,2026-03-11,SYSBP,118.0,mmHg,4,
042-S01-010,14,WEEK8,2026-03-11,DIABP,90.0,mmHg,4,
042-S01-010,15,WEEK8,2026-03-11,PULSE,70.0,bpm,4,
042-S01-010,16,WEEK12,2026-04-12,SYSBP,136.0,mmHg,6,
042-S01-010,17,WEEK12,2026-04-12,DIABP,84.0,mmHg,6,
042-S01-010,18,WEEK12,2026-04-12,PULSE,65.0,bpm,6,
042-S01-010,19,WEEK16,2026-05-10,SYSBP,137.0,mmHg,7,
042-S01-010,20,WEEK16,2026-05-10,DIABP,85.0,mmHg,7,
042-S01-010,21,WEEK16,2026-05-10,PULSE,48.0,bpm,7,
042-S01-010,22,WEEK20,2026-06-06,SYSBP,132.0,mmHg,9,
042-S01-010,23,WEEK20,2026-06-06,DIABP,68.0,mmHg,9,
042-S01-010,24,WEEK20,2026-06-06,PULSE,76.0,bpm,9,
042-S01-010,25,WEEK24,2026-07-01,SYSBP,134.0,mmHg,10,
042-S01-010,26,WEEK24,2026-07-01,DIABP,74.0,mmHg,10,
042-S01-010,27,WEEK24,2026-07-01,PULSE,63.0,bpm,10,
042-S01-010,28,EOS,2026-07-19,SYSBP,115.0,mmHg,11,
042-S01-010,29,EOS,2026-07-19,DIABP,75.0,mmHg,11,
042-S01-010,30,EOS,2026-07-19,PULSE,82.0,bpm,11,
042-S02-010,1,SCREENING,2026-01-06,SYSBP,100.0,mmHg,1,
042-S02-010,2,SCREENING,2026-01-06,DIABP,82.0,mmHg,1,
042-S02-010,3,SCREENING,2026-01-06,PULSE,69.0,bpm,1,
042-S02-010,4,BASELINE,2026-01-21,SYSBP,142.0,mmHg,1,
042-S02-010,5,BASELINE,2026-01-21,DIABP,76.0,mmHg,1,
042-S02-010,6,BASELINE,2026-01-21,PULSE,56.0,bpm,1,
042-S02-010,7,WEEK2,2026-02-03,SYSBP,128.0,mmHg,2,
042-S02-010,8,WEEK2,2026-02-03,DIABP,62.0,mmHg,2,
042-S02-010,9,WEEK2,2026-02-03,PULSE,71.0,bpm,2,
042-S02-010,10,WEEK4,2026-02-18,SYSBP,120.0,mmHg,3,
042-S02-010,11,WEEK4,2026-02-18,DIABP,82.0,mmHg,3,
042-S02-010,12,WEEK4,2026-02-18,PULSE,65.0,bpm,3,
042-S02-010,13,WEEK8,2026-03-20,SYSBP,127.0,mmHg,4,
042-S02-010,14,WEEK8,2026-03-20,DIABP,77.0,mmHg,4,
042-S02-010,15,WEEK8,2026-03-20,PULSE,78.0,bpm,4,
042-S02-010,16,WEEK12,2026-04-18,SYSBP,122.0,mmHg,6,
042-S02-010,17,WEEK12,2026-04-18,DIABP,93.0,mmHg,6,
042-S02-010,18,WEEK12,2026-04-18,PULSE,65.0,bpm,6,
042-S02-010,19,WEEK16,2026-05-05,SYSBP,131.0,mmHg,7,
042-S02-010,20,WEEK16,2026-05-05,DIABP,79.0,mmHg,7,
042-S02-010,21,WEEK16,2026-05-05,PULSE,82.0,bpm,7,
042-S02-010,22,WEEK20,2026-06-11,SYSBP,139.0,mmHg,9,
042-S02-010,23,WEEK20,2026-06-11,DIABP,78.0,mmHg,9,
042-S02-010,24,WEEK20,2026-06-11,PULSE,60.0,bpm,9,
042-S02-010,25,WEEK24,2026-07-07,SYSBP,145.0,mmHg,10,
042-S02-010,26,WEEK24,2026-07-07,DIABP,86.0,mmHg,10,
042-S02-010,27,WEEK24,2026-07-07,PULSE,80.0,bpm,10,
042-S02-010,28,EOS,2026-07-21,SYSBP,121.0,mmHg,11,
042-S02-010,29,EOS,2026-07-21,DIABP,71.0,mmHg,11,
042-S02-010,30,EOS,2026-07-21,PULSE,93.0,bpm,11,
042-S03-010,1,SCREENING,10-JAN-2026,SYSBP,132.0,mmHg,1,
042-S03-010,2,SCREENING,10-JAN-2026,DIABP,78.0,mmHg,1,
042-S03-010,3,SCREENING,10-JAN-2026,PULSE,81.0,bpm,1,
042-S03-010,4,BASELINE,24-JAN-2026,SYSBP,121.0,mmHg,1,
042-S03-010,5,BASELINE,24-JAN-2026,DIABP,71.0,mmHg,1,
042-S03-010,6,BASELINE,24-JAN-2026,PULSE,84.0,bpm,1,
042-S03-010,7,WEEK2,07-FEB-2026,SYSBP,121.0,mmHg,2,
042-S03-010,8,WEEK2,07-FEB-2026,DIABP,92.0,mmHg,2,
042-S03-010,9,WEEK2,07-FEB-2026,PULSE,65.0,bpm,2,
042-S03-010,10,WEEK4,18-FEB-2026,SYSBP,127.0,mmHg,3,
042-S03-010,11,WEEK4,18-FEB-2026,DIABP,88.0,mmHg,3,
042-S03-010,12,WEEK4,18-FEB-2026,PULSE,53.0,bpm,3,
042-S03-010,13,WEEK8,20-MAR-2026,SYSBP,123.0,mmHg,4,
042-S03-010,14,WEEK8,20-MAR-2026,DIABP,92.0,mmHg,4,
042-S03-010,15,WEEK8,20-MAR-2026,PULSE,77.0,bpm,4,
042-S03-010,16,WEEK12,15-APR-2026,SYSBP,135.0,mmHg,6,
042-S03-010,17,WEEK12,15-APR-2026,DIABP,69.0,mmHg,6,
042-S03-010,18,WEEK12,15-APR-2026,PULSE,73.0,bpm,6,
042-S03-010,19,WEEK16,13-MAY-2026,SYSBP,129.0,mmHg,7,
042-S03-010,20,WEEK16,13-MAY-2026,DIABP,77.0,mmHg,7,
042-S03-010,21,WEEK16,13-MAY-2026,PULSE,68.0,bpm,7,
042-S03-010,22,WEEK20,09-JUN-2026,SYSBP,138.0,mmHg,9,
042-S03-010,23,WEEK20,09-JUN-2026,DIABP,87.0,mmHg,9,
042-S03-010,24,WEEK20,09-JUN-2026,PULSE,85.0,bpm,9,
042-S03-010,25,WEEK24,10-JUL-2026,SYSBP,132.0,mmHg,10,
042-S03-010,26,WEEK24,10-JUL-2026,DIABP,75.0,mmHg,10,
042-S03-010,27,WEEK24,10-JUL-2026,PULSE,72.0,bpm,10,
042-S03-010,28,EOS,25-JUL-2026,SYSBP,134.0,mmHg,11,
042-S03-010,29,EOS,25-JUL-2026,DIABP,83.0,mmHg,11,
042-S03-010,30,EOS,25-JUL-2026,PULSE,86.0,bpm,11,
042-S04-010,1,SCREENING,2026-01-15,SYSBP,128.0,mmHg,1,
042-S04-010,2,SCREENING,2026-01-15,DIABP,87.0,mmHg,1,
042-S04-010,3,SCREENING,2026-01-15,PULSE,80.0,bpm,1,
042-S04-010,4,BASELINE,2026-01-30,SYSBP,133.0,mmHg,2,
042-S04-010,5,BASELINE,2026-01-30,DIABP,86.0,mmHg,2,
042-S04-010,6,BASELINE,2026-01-30,PULSE,79.0,bpm,2,
042-S04-010,7,WEEK2,2026-02-12,SYSBP,123.0,mmHg,2,
042-S04-010,8,WEEK2,2026-02-12,DIABP,94.0,mmHg,2,
042-S04-010,9,WEEK2,2026-02-12,PULSE,74.0,bpm,2,
042-S04-010,10,WEEK4,2026-03-07,SYSBP,127.0,mmHg,4,
042-S04-010,11,WEEK4,2026-03-07,DIABP,76.0,mmHg,4,
042-S04-010,12,WEEK4,2026-03-07,PULSE,67.0,bpm,4,
042-S04-010,13,WEEK8,2026-03-28,SYSBP,135.0,mmHg,5,
042-S04-010,14,WEEK8,2026-03-28,DIABP,71.0,mmHg,5,
042-S04-010,15,WEEK8,2026-03-28,PULSE,83.0,bpm,5,
042-S04-010,16,WEEK12,2026-04-22,SYSBP,128.0,mmHg,6,
042-S04-010,17,WEEK12,2026-04-22,DIABP,89.0,mmHg,6,
042-S04-010,18,WEEK12,2026-04-22,PULSE,82.0,bpm,6,
042-S04-010,19,WEEK16,2026-05-19,SYSBP,136.0,mmHg,8,
042-S04-010,20,WEEK16,2026-05-19,DIABP,80.0,mmHg,8,
042-S04-010,21,WEEK16,2026-05-19,PULSE,71.0,bpm,8,
042-S04-010,22,WEEK20,2026-06-27,SYSBP,124.0,mmHg,10,
042-S04-010,23,WEEK20,2026-06-27,DIABP,78.0,mmHg,10,
042-S04-010,24,WEEK20,2026-06-27,PULSE,67.0,bpm,10,
042-S04-010,25,WEEK24,2026-07-18,SYSBP,112.0,mmHg,11,
042-S04-010,26,WEEK24,2026-07-18,DIABP,77.0,mmHg,11,
042-S04-010,27,WEEK24,2026-07-18,PULSE,76.0,bpm,11,
042-S04-010,28,EOS,2026-07-31,SYSBP,133.0,mmHg,12,
042-S04-010,29,EOS,2026-07-31,DIABP,71.0,mmHg,12,
042-S04-010,30,EOS,2026-07-31,PULSE,60.0,bpm,12,
042-S05-010,1,SCREENING,2026-01-07,SYSBP,129.0,mmHg,1,
042-S05-010,2,SCREENING,2026-01-07,DIABP,83.0,mmHg,1,
042-S05-010,3,SCREENING,2026-01-07,PULSE,77.0,bpm,1,
042-S05-010,4,BASELINE,2026-01-22,SYSBP,132.0,mmHg,1,
042-S05-010,5,BASELINE,2026-01-22,DIABP,78.0,mmHg,1,
042-S05-010,6,BASELINE,2026-01-22,PULSE,86.0,bpm,1,
042-S05-010,7,WEEK2,2026-02-04,SYSBP,141.0,mmHg,2,
042-S05-010,8,WEEK2,2026-02-04,DIABP,81.0,mmHg,2,
042-S05-010,9,WEEK2,2026-02-04,PULSE,62.0,bpm,2,
042-S05-010,10,WEEK4,2026-02-20,SYSBP,136.0,mmHg,3,
042-S05-010,11,WEEK4,2026-02-20,DIABP,81.0,mmHg,3,
042-S05-010,12,WEEK4,2026-02-20,PULSE,71.0,bpm,3,
042-S05-010,13,WEEK8,2026-03-15,SYSBP,144.0,mmHg,4,
042-S05-010,14,WEEK8,2026-03-15,DIABP,83.0,mmHg,4,
042-S05-010,15,WEEK8,2026-03-15,PULSE,56.0,bpm,4,
042-S05-010,16,WEEK12,2026-04-14,SYSBP,121.0,mmHg,6,
042-S05-010,17,WEEK12,2026-04-14,DIABP,100.0,mmHg,6,
042-S05-010,18,WEEK12,2026-04-14,PULSE,74.0,bpm,6,
042-S05-010,19,WEEK16,2026-05-12,SYSBP,117.0,mmHg,7,
042-S05-010,20,WEEK16,2026-05-12,DIABP,63.0,mmHg,7,
042-S05-010,21,WEEK16,2026-05-12,PULSE,60.0,bpm,7,
042-S05-010,22,WEEK20,2026-06-10,SYSBP,127.0,mmHg,9,
042-S05-010,23,WEEK20,2026-06-10,DIABP,85.0,mmHg,9,
042-S05-010,24,WEEK20,2026-06-10,PULSE,79.0,bpm,9,
042-S05-010,25,WEEK24,2026-07-11,SYSBP,119.0,mmHg,11,
042-S05-010,26,WEEK24,2026-07-11,DIABP,91.0,mmHg,11,
042-S05-010,27,WEEK24,2026-07-11,PULSE,63.0,bpm,11,
042-S05-010,28,EOS,2026-07-24,SYSBP,136.0,mmHg,11,
042-S05-010,29,EOS,2026-07-24,DIABP,79.0,mmHg,11,
042-S05-010,30,EOS,2026-07-24,PULSE,59.0,bpm,11,
042-S06-010,1,SCREENING,2026-01-06,SYSBP,120.0,mmHg,1,
042-S06-010,2,SCREENING,2026-01-06,DIABP,91.0,mmHg,1,
042-S06-010,3,SCREENING,2026-01-06,PULSE,62.0,bpm,1,
042-S06-010,4,BASELINE,2026-01-24,SYSBP,124.0,mmHg,1,
042-S06-010,5,BASELINE,2026-01-24,DIABP,70.0,mmHg,1,
042-S06-010,6,BASELINE,2026-01-24,PULSE,54.0,bpm,1,
042-S06-010,7,WEEK2,2026-02-05,SYSBP,138.0,mmHg,2,
042-S06-010,8,WEEK2,2026-02-05,DIABP,66.0,mmHg,2,
042-S06-010,9,WEEK2,2026-02-05,PULSE,64.0,bpm,2,
042-S06-010,10,WEEK4,2026-02-19,SYSBP,126.0,mmHg,3,
042-S06-010,11,WEEK4,2026-02-19,DIABP,92.0,mmHg,3,
042-S06-010,12,WEEK4,2026-02-19,PULSE,73.0,bpm,3,
042-S06-010,13,WEEK8,2026-03-17,SYSBP,125.0,mmHg,4,
042-S06-010,14,WEEK8,2026-03-17,DIABP,64.0,mmHg,4,
042-S06-010,15,WEEK8,2026-03-17,PULSE,53.0,bpm,4,
042-S06-010,16,WEEK12,2026-04-15,SYSBP,116.0,mmHg,6,
042-S06-010,17,WEEK12,2026-04-15,DIABP,98.0,mmHg,6,
042-S06-010,18,WEEK12,2026-04-15,PULSE,65.0,bpm,6,
042-S06-010,19,WEEK16,2026-05-12,SYSBP,133.0,mmHg,7,
042-S06-010,20,WEEK16,2026-05-12,DIABP,91.0,mmHg,7,
042-S06-010,21,WEEK16,2026-05-12,PULSE,78.0,bpm,7,
042-S06-010,22,WEEK20,2026-06-20,SYSBP,136.0,mmHg,9,
042-S06-010,23,WEEK20,2026-06-20,DIABP,70.0,mmHg,9,
042-S06-010,24,WEEK20,2026-06-20,PULSE,63.0,bpm,9,
042-S06-010,25,WEEK24,2026-07-07,SYSBP,116.0,mmHg,10,
042-S06-010,26,WEEK24,2026-07-07,DIABP,86.0,mmHg,10,
042-S06-010,27,WEEK24,2026-07-07,PULSE,75.0,bpm,10,
042-S06-010,28,EOS,2026-07-25,SYSBP,115.0,mmHg,11,
042-S06-010,29,EOS,2026-07-25,DIABP,75.0,mmHg,11,
042-S06-010,30,EOS,2026-07-25,PULSE,62.0,bpm,11,
042-S07-010,1,SCREENING,2026-01-09,SYSBP,119.0,mmHg,1,
042-S07-010,2,SCREENING,2026-01-09,DIABP,85.0,mmHg,1,
042-S07-010,3,SCREENING,2026-01-09,PULSE,90.0,bpm,1,
042-S07-010,4,BASELINE,2026-01-23,SYSBP,126.0,mmHg,1,
042-S07-010,5,BASELINE,2026-01-23,DIABP,80.0,mmHg,1,
042-S07-010,6,BASELINE,2026-01-23,PULSE,74.0,bpm,1,
042-S07-010,7,WEEK2,2026-02-06,SYSBP,120.0,mmHg,2,
042-S07-010,8,WEEK2,2026-02-06,DIABP,54.0,mmHg,2,
042-S07-010,9,WEEK2,2026-02-06,PULSE,71.0,bpm,2,
042-S07-010,10,WEEK4,2026-02-19,SYSBP,124.0,mmHg,3,
042-S07-010,11,WEEK4,2026-02-19,DIABP,73.0,mmHg,3,
042-S07-010,12,WEEK4,2026-02-19,PULSE,75.0,bpm,3,
042-S07-010,13,WEEK8,2026-03-24,SYSBP,127.0,mmHg,4,
042-S07-010,14,WEEK8,2026-03-24,DIABP,89.0,mmHg,4,
042-S07-010,15,WEEK8,2026-03-24,PULSE,68.0,bpm,4,
042-S07-010,16,WEEK12,2026-04-16,SYSBP,129.0,mmHg,6,
042-S07-010,17,WEEK12,2026-04-16,DIABP,88.0,mmHg,6,
042-S07-010,18,WEEK12,2026-04-16,PULSE,84.0,bpm,6,
042-S07-010,19,WEEK16,2026-05-14,SYSBP,120.0,mmHg,7,
042-S07-010,20,WEEK16,2026-05-14,DIABP,61.0,mmHg,7,
042-S07-010,21,WEEK16,2026-05-14,PULSE,73.0,bpm,7,
042-S07-010,22,WEEK20,2026-06-11,SYSBP,123.0,mmHg,9,
042-S07-010,23,WEEK20,2026-06-11,DIABP,85.0,mmHg,9,
042-S07-010,24,WEEK20,2026-06-11,PULSE,74.0,bpm,9,
042-S07-010,25,WEEK24,2026-07-10,SYSBP,129.0,mmHg,10,
042-S07-010,26,WEEK24,2026-07-10,DIABP,74.0,mmHg,10,
042-S07-010,27,WEEK24,2026-07-10,PULSE,83.0,bpm,10,
042-S07-010,28,EOS,2026-07-23,SYSBP,138.0,mmHg,11,
042-S07-010,29,EOS,2026-07-23,DIABP,98.0,mmHg,11,
042-S07-010,30,EOS,2026-07-23,PULSE,63.0,bpm,11,
042-S08-010,1,SCREENING,2026-01-16,SYSBP,124.0,mmHg,4,
042-S08-010,2,SCREENING,2026-01-16,DIABP,79.0,mmHg,4,
042-S08-010,3,SCREENING,2026-01-16,PULSE,94.0,bpm,4,
042-S08-010,4,BASELINE,2026-01-29,SYSBP,133.0,mmHg,4,
042-S08-010,5,BASELINE,2026-01-29,DIABP,75.0,mmHg,4,
042-S08-010,6,BASELINE,2026-01-29,PULSE,74.0,bpm,4,
042-S08-010,7,WEEK2,2026-02-12,SYSBP,107.0,mmHg,5,
042-S08-010,8,WEEK2,2026-02-12,DIABP,76.0,mmHg,5,
042-S08-010,9,WEEK2,2026-02-12,PULSE,71.0,bpm,5,
042-S08-010,10,WEEK4,2026-02-20,SYSBP,140.0,mmHg,6,
042-S08-010,11,WEEK4,2026-02-20,DIABP,72.0,mmHg,6,
042-S08-010,12,WEEK4,2026-02-20,PULSE,65.0,bpm,6,
042-S08-010,13,WEEK8,2026-03-25,SYSBP,146.0,mmHg,8,
042-S08-010,14,WEEK8,2026-03-25,DIABP,76.0,mmHg,8,
042-S08-010,15,WEEK8,2026-03-25,PULSE,63.0,bpm,8,
042-S08-010,16,WEEK12,2026-04-24,SYSBP,127.0,mmHg,9,
042-S08-010,17,WEEK12,2026-04-24,DIABP,72.0,mmHg,9,
042-S08-010,18,WEEK12,2026-04-24,PULSE,74.0,bpm,9,
042-S08-010,19,WEEK16,2026-05-20,SYSBP,133.0,mmHg,11,
042-S08-010,20,WEEK16,2026-05-20,DIABP,84.0,mmHg,11,
042-S08-010,21,WEEK16,2026-05-20,PULSE,73.0,bpm,11,
042-S08-010,22,WEEK20,2026-06-16,SYSBP,131.0,mmHg,12,
042-S08-010,23,WEEK20,2026-06-16,DIABP,69.0,mmHg,12,
042-S08-010,24,WEEK20,2026-06-16,PULSE,77.0,bpm,12,
042-S08-010,25,WEEK24,2026-07-13,SYSBP,131.0,mmHg,14,
042-S08-010,26,WEEK24,2026-07-13,DIABP,92.0,mmHg,14,
042-S08-010,27,WEEK24,2026-07-13,PULSE,75.0,bpm,14,
042-S08-010,28,EOS,2026-07-27,SYSBP,131.0,mmHg,14,
042-S08-010,29,EOS,2026-07-27,DIABP,75.0,mmHg,14,
042-S08-010,30,EOS,2026-07-27,PULSE,75.0,bpm,14,
042-S09-010,1,SCREENING,2026-01-10,SYSBP,147.0,mmHg,1,
042-S09-010,2,SCREENING,2026-01-10,DIABP,87.0,mmHg,1,
042-S09-010,3,SCREENING,2026-01-10,PULSE,80.0,bpm,1,
042-S09-010,4,BASELINE,2026-01-20,SYSBP,136.0,mmHg,1,
042-S09-010,5,BASELINE,2026-01-20,DIABP,75.0,mmHg,1,
042-S09-010,6,BASELINE,2026-01-20,PULSE,75.0,bpm,1,
042-S09-010,7,WEEK2,2026-02-04,SYSBP,137.0,mmHg,2,
042-S09-010,8,WEEK2,2026-02-04,DIABP,89.0,mmHg,2,
042-S09-010,9,WEEK2,2026-02-04,PULSE,77.0,bpm,2,
042-S09-010,10,WEEK4,2026-02-20,SYSBP,143.0,mmHg,3,
042-S09-010,11,WEEK4,2026-02-20,DIABP,66.0,mmHg,3,
042-S09-010,12,WEEK4,2026-02-20,PULSE,85.0,bpm,3,
042-S09-010,13,WEEK8,2026-03-19,SYSBP,129.0,mmHg,4,
042-S09-010,14,WEEK8,2026-03-19,DIABP,78.0,mmHg,4,
042-S09-010,15,WEEK8,2026-03-19,PULSE,75.0,bpm,4,
042-S09-010,16,WEEK12,2026-04-18,SYSBP,124.0,mmHg,6,
042-S09-010,17,WEEK12,2026-04-18,DIABP,87.0,mmHg,6,
042-S09-010,18,WEEK12,2026-04-18,PULSE,87.0,bpm,6,
042-S09-010,19,WEEK16,2026-05-15,SYSBP,126.0,mmHg,7,
042-S09-010,20,WEEK16,2026-05-15,DIABP,67.0,mmHg,7,
042-S09-010,21,WEEK16,2026-05-15,PULSE,67.0,bpm,7,
042-S09-010,22,WEEK20,2026-06-12,SYSBP,114.0,mmHg,9,
042-S09-010,23,WEEK20,2026-06-12,DIABP,66.0,mmHg,9,
042-S09-010,24,WEEK20,2026-06-12,PULSE,92.0,bpm,9,
042-S09-010,25,WEEK24,2026-07-08,SYSBP,132.0,mmHg,10,
042-S09-010,26,WEEK24,2026-07-08,DIABP,81.0,mmHg,10,
042-S09-010,27,WEEK24,2026-07-08,PULSE,65.0,bpm,10,
042-S09-010,28,EOS,2026-07-25,SYSBP,136.0,mmHg,11,
042-S09-010,29,EOS,2026-07-25,DIABP,81.0,mmHg,11,
042-S09-010,30,EOS,2026-07-25,PULSE,57.0,bpm,11,
042-S10-010,1,SCREENING,2026-01-06,SYSBP,122.0,mmHg,1,
042-S10-010,2,SCREENING,2026-01-06,DIABP,80.0,mmHg,1,
042-S10-010,3,SCREENING,2026-01-06,PULSE,71.0,bpm,1,
042-S10-010,4,BASELINE,2026-01-17,SYSBP,142.0,mmHg,1,
042-S10-010,5,BASELINE,2026-01-17,DIABP,72.0,mmHg,1,
042-S10-010,6,BASELINE,2026-01-17,PULSE,73.0,bpm,1,
042-S10-010,7,WEEK2,2026-01-29,SYSBP,128.0,mmHg,1,
042-S10-010,8,WEEK2,2026-01-29,DIABP,73.0,mmHg,1,
042-S10-010,9,WEEK2,2026-01-29,PULSE,75.0,bpm,1,
042-S10-010,10,WEEK4,2026-02-15,SYSBP,121.0,mmHg,2,
042-S10-010,11,WEEK4,2026-02-15,DIABP,84.0,mmHg,2,
042-S10-010,12,WEEK4,2026-02-15,PULSE,80.0,bpm,2,
042-S10-010,13,WEEK8,2026-03-15,SYSBP,127.0,mmHg,4,
042-S10-010,14,WEEK8,2026-03-15,DIABP,87.0,mmHg,4,
042-S10-010,15,WEEK8,2026-03-15,PULSE,72.0,bpm,4,
042-S10-010,16,WEEK12,2026-04-15,SYSBP,128.0,mmHg,6,
042-S10-010,17,WEEK12,2026-04-15,DIABP,85.0,mmHg,6,
042-S10-010,18,WEEK12,2026-04-15,PULSE,82.0,bpm,6,
042-S10-010,19,WEEK16,2026-05-12,SYSBP,137.0,mmHg,7,
042-S10-010,20,WEEK16,2026-05-12,DIABP,68.0,mmHg,7,
042-S10-010,21,WEEK16,2026-05-12,PULSE,74.0,bpm,7,
042-S10-010,22,WEEK20,2026-06-08,SYSBP,137.0,mmHg,9,
042-S10-010,23,WEEK20,2026-06-08,DIABP,77.0,mmHg,9,
042-S10-010,24,WEEK20,2026-06-08,PULSE,85.0,bpm,9,
042-S10-010,25,WEEK24,2026-07-11,SYSBP,118.0,mmHg,11,
042-S10-010,26,WEEK24,2026-07-11,DIABP,73.0,mmHg,11,
042-S10-010,27,WEEK24,2026-07-11,PULSE,70.0,bpm,11,
042-S10-010,28,EOS,2026-07-18,SYSBP,122.0,mmHg,11,
042-S10-010,29,EOS,2026-07-18,DIABP,71.0,mmHg,11,
042-S10-010,30,EOS,2026-07-18,PULSE,68.0,bpm,11,
042-S11-010,1,SCREENING,2026-01-13,SYSBP,127.0,mmHg,6,
042-S11-010,2,SCREENING,2026-01-13,DIABP,80.0,mmHg,6,
042-S11-010,3,SCREENING,2026-01-13,PULSE,72.0,bpm,6,
042-S11-010,4,BASELINE,2026-01-27,SYSBP,128.0,mmHg,6,
042-S11-010,5,BASELINE,2026-01-27,DIABP,79.0,mmHg,6,
042-S11-010,6,BASELINE,2026-01-27,PULSE,73.0,bpm,6,
042-S11-010,7,WEEK2,2026-02-10,SYSBP,129.0,mmHg,6,
042-S11-010,8,WEEK2,2026-02-10,DIABP,80.0,mmHg,6,
042-S11-010,9,WEEK2,2026-02-10,PULSE,71.0,bpm,6,
042-S11-010,10,WEEK4,2026-02-24,SYSBP,127.0,mmHg,6,
042-S11-010,11,WEEK4,2026-02-24,DIABP,79.0,mmHg,6,
042-S11-010,12,WEEK4,2026-02-24,PULSE,73.0,bpm,6,
042-S11-010,13,WEEK8,2026-03-24,SYSBP,129.0,mmHg,6,
042-S11-010,14,WEEK8,2026-03-24,DIABP,81.0,mmHg,6,
042-S11-010,15,WEEK8,2026-03-24,PULSE,72.0,bpm,6,
042-S11-010,16,WEEK12,2026-04-21,SYSBP,128.0,mmHg,6,
042-S11-010,17,WEEK12,2026-04-21,DIABP,81.0,mmHg,6,
042-S11-010,18,WEEK12,2026-04-21,PULSE,71.0,bpm,6,
042-S11-010,19,WEEK16,2026-05-19,SYSBP,127.0,mmHg,8,
042-S11-010,20,WEEK16,2026-05-19,DIABP,80.0,mmHg,8,
042-S11-010,21,WEEK16,2026-05-19,PULSE,71.0,bpm,8,
042-S11-010,22,WEEK20,2026-06-16,SYSBP,129.0,mmHg,9,
042-S11-010,23,WEEK20,2026-06-16,DIABP,80.0,mmHg,9,
042-S11-010,24,WEEK20,2026-06-16,PULSE,71.0,bpm,9,
042-S11-010,25,WEEK24,2026-07-14,SYSBP,129.0,mmHg,11,
042-S11-010,26,WEEK24,2026-07-14,DIABP,80.0,mmHg,11,
042-S11-010,27,WEEK24,2026-07-14,PULSE,72.0,bpm,11,
042-S11-010,28,EOS,2026-07-28,SYSBP,128.0,mmHg,11,
042-S11-010,29,EOS,2026-07-28,DIABP,80.0,mmHg,11,
042-S11-010,30,EOS,2026-07-28,PULSE,73.0,bpm,11,
042-S12-010,1,SCREENING,2026-01-15,SYSBP,136.0,mmHg,1,
042-S12-010,2,SCREENING,2026-01-15,DIABP,90.0,mmHg,1,
042-S12-010,3,SCREENING,2026-01-15,PULSE,70.0,bpm,1,
042-S12-010,4,BASELINE,2026-01-30,SYSBP,143.0,mmHg,2,
042-S12-010,5,BASELINE,2026-01-30,DIABP,91.0,mmHg,2,
042-S12-010,6,BASELINE,2026-01-30,PULSE,75.0,bpm,2,
042-S12-010,7,WEEK2,2026-02-12,SYSBP,118.0,mmHg,2,
042-S12-010,8,WEEK2,2026-02-12,DIABP,76.0,mmHg,2,
042-S12-010,9,WEEK2,2026-02-12,PULSE,81.0,bpm,2,
042-S12-010,10,WEEK4,2026-02-27,SYSBP,126.0,mmHg,3,
042-S12-010,11,WEEK4,2026-02-27,DIABP,92.0,mmHg,3,
042-S12-010,12,WEEK4,2026-02-27,PULSE,80.0,bpm,3,
042-S12-010,13,WEEK8,2026-03-30,SYSBP,135.0,mmHg,5,
042-S12-010,14,WEEK8,2026-03-30,DIABP,71.0,mmHg,5,
042-S12-010,15,WEEK8,2026-03-30,PULSE,77.0,bpm,5,
042-S12-010,16,WEEK12,2026-04-22,SYSBP,145.0,mmHg,6,
042-S12-010,17,WEEK12,2026-04-22,DIABP,65.0,mmHg,6,
042-S12-010,18,WEEK12,2026-04-22,PULSE,67.0,bpm,6,
042-S12-010,19,WEEK16,2026-05-19,SYSBP,122.0,mmHg,8,
042-S12-010,20,WEEK16,2026-05-19,DIABP,70.0,mmHg,8,
042-S12-010,21,WEEK16,2026-05-19,PULSE,80.0,bpm,8,
042-S12-010,22,WEEK20,2026-06-20,SYSBP,121.0,mmHg,9,
042-S12-010,23,WEEK20,2026-06-20,DIABP,78.0,mmHg,9,
042-S12-010,24,WEEK20,2026-06-20,PULSE,81.0,bpm,9,
042-S12-010,25,WEEK24,2026-07-17,SYSBP,134.0,mmHg,11,
042-S12-010,26,WEEK24,2026-07-17,DIABP,100.0,mmHg,11,
042-S12-010,27,WEEK24,2026-07-17,PULSE,68.0,bpm,11,
042-S12-010,28,EOS,2026-07-30,SYSBP,133.0,mmHg,12,
042-S12-010,29,EOS,2026-07-30,DIABP,88.0,mmHg,12,
042-S12-010,30,EOS,2026-07-30,PULSE,73.0,bpm,12,
042-S01-011,1,SCREENING,2026-01-04,SYSBP,117.0,mmHg,1,
042-S01-011,2,SCREENING,2026-01-04,DIABP,69.0,mmHg,1,
042-S01-011,3,SCREENING,2026-01-04,PULSE,59.0,bpm,1,
042-S01-011,4,BASELINE,2026-01-16,SYSBP,117.0,mmHg,1,
042-S01-011,5,BASELINE,2026-01-16,DIABP,80.0,mmHg,1,
042-S01-011,6,BASELINE,2026-01-16,PULSE,68.0,bpm,1,
042-S01-011,7,WEEK2,2026-02-01,SYSBP,136.0,mmHg,2,
042-S01-011,8,WEEK2,2026-02-01,DIABP,90.0,mmHg,2,
042-S01-011,9,WEEK2,2026-02-01,PULSE,72.0,bpm,2,
042-S01-011,10,WEEK4,2026-02-21,SYSBP,135.0,mmHg,3,
042-S01-011,11,WEEK4,2026-02-21,DIABP,103.0,mmHg,3,
042-S01-011,12,WEEK4,2026-02-21,PULSE,65.0,bpm,3,
042-S01-011,13,WEEK8,2026-03-14,SYSBP,126.0,mmHg,4,
042-S01-011,14,WEEK8,2026-03-14,DIABP,89.0,mmHg,4,
042-S01-011,15,WEEK8,2026-03-14,PULSE,60.0,bpm,4,
042-S01-011,16,WEEK12,2026-04-10,SYSBP,131.0,mmHg,5,
042-S01-011,17,WEEK12,2026-04-10,DIABP,68.0,mmHg,5,
042-S01-011,18,WEEK12,2026-04-10,PULSE,75.0,bpm,5,
042-S01-011,19,WEEK16,2026-05-08,SYSBP,130.0,mmHg,7,
042-S01-011,20,WEEK16,2026-05-08,DIABP,80.0,mmHg,7,
042-S01-011,21,WEEK16,2026-05-08,PULSE,65.0,bpm,7,
042-S01-011,22,WEEK20,2026-06-07,SYSBP,127.0,mmHg,9,
042-S01-011,23,WEEK20,2026-06-07,DIABP,92.0,mmHg,9,
042-S01-011,24,WEEK20,2026-06-07,PULSE,80.0,bpm,9,
042-S01-011,25,WEEK24,2026-07-04,SYSBP,127.0,mmHg,10,
042-S01-011,26,WEEK24,2026-07-04,DIABP,93.0,mmHg,10,
042-S01-011,27,WEEK24,2026-07-04,PULSE,78.0,bpm,10,
042-S01-011,28,EOS,2026-07-21,SYSBP,124.0,mmHg,11,
042-S01-011,29,EOS,2026-07-21,DIABP,84.0,mmHg,11,
042-S01-011,30,EOS,2026-07-21,PULSE,69.0,bpm,11,
042-S02-011,1,SCREENING,2026-01-19,SYSBP,123.0,mmHg,1,
042-S02-011,2,SCREENING,2026-01-19,DIABP,86.0,mmHg,1,
042-S02-011,3,SCREENING,2026-01-19,PULSE,71.0,bpm,1,
042-S02-011,4,BASELINE,2026-01-31,SYSBP,131.0,mmHg,2,
042-S02-011,5,BASELINE,2026-01-31,DIABP,78.0,mmHg,2,
042-S02-011,6,BASELINE,2026-01-31,PULSE,73.0,bpm,2,
042-S02-011,7,WEEK2,2026-02-16,SYSBP,130.0,mmHg,2,
042-S02-011,8,WEEK2,2026-02-16,DIABP,74.0,mmHg,2,
042-S02-011,9,WEEK2,2026-02-16,PULSE,57.0,bpm,2,
042-S02-011,10,WEEK4,2026-03-03,SYSBP,129.0,mmHg,3,
042-S02-011,11,WEEK4,2026-03-03,DIABP,74.0,mmHg,3,
042-S02-011,12,WEEK4,2026-03-03,PULSE,71.0,bpm,3,
042-S02-011,13,WEEK8,2026-03-27,SYSBP,140.0,mmHg,5,
042-S02-011,14,WEEK8,2026-03-27,DIABP,64.0,mmHg,5,
042-S02-011,15,WEEK8,2026-03-27,PULSE,66.0,bpm,5,
042-S02-011,16,WEEK12,2026-04-28,SYSBP,120.0,mmHg,6,
042-S02-011,17,WEEK12,2026-04-28,DIABP,90.0,mmHg,6,
042-S02-011,18,WEEK12,2026-04-28,PULSE,78.0,bpm,6,
042-S02-011,19,WEEK16,2026-05-20,SYSBP,129.0,mmHg,8,
042-S02-011,20,WEEK16,2026-05-20,DIABP,71.0,mmHg,8,
042-S02-011,21,WEEK16,2026-05-20,PULSE,76.0,bpm,8,
042-S02-011,22,WEEK20,2026-06-20,SYSBP,133.0,mmHg,9,
042-S02-011,23,WEEK20,2026-06-20,DIABP,86.0,mmHg,9,
042-S02-011,24,WEEK20,2026-06-20,PULSE,66.0,bpm,9,
042-S02-011,25,WEEK24,2026-07-19,SYSBP,139.0,mmHg,11,
042-S02-011,26,WEEK24,2026-07-19,DIABP,64.0,mmHg,11,
042-S02-011,27,WEEK24,2026-07-19,PULSE,69.0,bpm,11,
042-S02-011,28,EOS,2026-08-03,SYSBP,129.0,mmHg,12,
042-S02-011,29,EOS,2026-08-03,DIABP,73.0,mmHg,12,
042-S02-011,30,EOS,2026-08-03,PULSE,68.0,bpm,12,
042-S03-011,1,SCREENING,14-JAN-2026,SYSBP,125.0,mmHg,1,
042-S03-011,2,SCREENING,14-JAN-2026,DIABP,80.0,mmHg,1,
042-S03-011,3,SCREENING,14-JAN-2026,PULSE,55.0,bpm,1,
042-S03-011,4,BASELINE,28-JAN-2026,SYSBP,135.0,mmHg,1,
042-S03-011,5,BASELINE,28-JAN-2026,DIABP,90.0,mmHg,1,
042-S03-011,6,BASELINE,28-JAN-2026,PULSE,80.0,bpm,1,
042-S03-011,7,WEEK2,01-FEB-2026,SYSBP,126.0,mmHg,2,
042-S03-011,8,WEEK2,01-FEB-2026,DIABP,76.0,mmHg,2,
042-S03-011,9,WEEK2,01-FEB-2026,PULSE,82.0,bpm,2,
042-S03-011,10,WEEK4,28-FEB-2026,SYSBP,126.0,mmHg,3,
042-S03-011,11,WEEK4,28-FEB-2026,DIABP,92.0,mmHg,3,
042-S03-011,12,WEEK4,28-FEB-2026,PULSE,64.0,bpm,3,
042-S03-011,13,WEEK8,24-MAR-2026,SYSBP,130.0,mmHg,4,
042-S03-011,14,WEEK8,24-MAR-2026,DIABP,95.0,mmHg,4,
042-S03-011,15,WEEK8,24-MAR-2026,PULSE,68.0,bpm,4,
042-S03-011,16,WEEK12,23-APR-2026,SYSBP,127.0,mmHg,6,
042-S03-011,17,WEEK12,23-APR-2026,DIABP,82.0,mmHg,6,
042-S03-011,18,WEEK12,23-APR-2026,PULSE,74.0,bpm,6,
042-S03-011,19,WEEK16,17-MAY-2026,SYSBP,125.0,mmHg,7,
042-S03-011,20,WEEK16,17-MAY-2026,DIABP,78.0,mmHg,7,
042-S03-011,21,WEEK16,17-MAY-2026,PULSE,75.0,bpm,7,
042-S03-011,22,WEEK20,17-JUN-2026,SYSBP,129.0,mmHg,9,
042-S03-011,23,WEEK20,17-JUN-2026,DIABP,67.0,mmHg,9,
042-S03-011,24,WEEK20,17-JUN-2026,PULSE,67.0,bpm,9,
042-S03-011,25,WEEK24,15-JUL-2026,SYSBP,143.0,mmHg,11,
042-S03-011,26,WEEK24,15-JUL-2026,DIABP,73.0,mmHg,11,
042-S03-011,27,WEEK24,15-JUL-2026,PULSE,60.0,bpm,11,
042-S03-011,28,EOS,27-JUL-2026,SYSBP,136.0,mmHg,11,
042-S03-011,29,EOS,27-JUL-2026,DIABP,80.0,mmHg,11,
042-S03-011,30,EOS,27-JUL-2026,PULSE,73.0,bpm,11,
042-S04-011,1,SCREENING,2026-01-16,SYSBP,117.0,mmHg,1,
042-S04-011,2,SCREENING,2026-01-16,DIABP,74.0,mmHg,1,
042-S04-011,3,SCREENING,2026-01-16,PULSE,71.0,bpm,1,
042-S04-011,4,BASELINE,2026-02-01,SYSBP,135.0,mmHg,2,
042-S04-011,5,BASELINE,2026-02-01,DIABP,95.0,mmHg,2,
042-S04-011,6,BASELINE,2026-02-01,PULSE,75.0,bpm,2,
042-S04-011,7,WEEK2,2026-02-14,SYSBP,131.0,mmHg,2,
042-S04-011,8,WEEK2,2026-02-14,DIABP,78.0,mmHg,2,
042-S04-011,9,WEEK2,2026-02-14,PULSE,73.0,bpm,2,
042-S04-011,10,WEEK4,2026-02-28,SYSBP,134.0,mmHg,3,
042-S04-011,11,WEEK4,2026-02-28,DIABP,80.0,mmHg,3,
042-S04-011,12,WEEK4,2026-02-28,PULSE,69.0,bpm,3,
042-S04-011,13,WEEK8,2026-03-26,SYSBP,140.0,mmHg,5,
042-S04-011,14,WEEK8,2026-03-26,DIABP,80.0,mmHg,5,
042-S04-011,15,WEEK8,2026-03-26,PULSE,69.0,bpm,5,
042-S04-011,16,WEEK12,2026-04-25,SYSBP,122.0,mmHg,6,
042-S04-011,17,WEEK12,2026-04-25,DIABP,89.0,mmHg,6,
042-S04-011,18,WEEK12,2026-04-25,PULSE,74.0,bpm,6,
042-S04-011,19,WEEK16,2026-05-20,SYSBP,136.0,mmHg,8,
042-S04-011,20,WEEK16,2026-05-20,DIABP,78.0,mmHg,8,
042-S04-011,21,WEEK16,2026-05-20,PULSE,75.0,bpm,8,
042-S04-011,22,WEEK20,2026-06-20,SYSBP,147.0,mmHg,9,
042-S04-011,23,WEEK20,2026-06-20,DIABP,76.0,mmHg,9,
042-S04-011,24,WEEK20,2026-06-20,PULSE,50.0,bpm,9,
042-S04-011,25,WEEK24,2026-07-16,SYSBP,113.0,mmHg,11,
042-S04-011,26,WEEK24,2026-07-16,DIABP,73.0,mmHg,11,
042-S04-011,27,WEEK24,2026-07-16,PULSE,80.0,bpm,11,
042-S04-011,28,EOS,2026-08-01,SYSBP,126.0,mmHg,12,
042-S04-011,29,EOS,2026-08-01,DIABP,75.0,mmHg,12,
042-S04-011,30,EOS,2026-08-01,PULSE,85.0,bpm,12,
042-S05-011,1,SCREENING,2025-12-31,SYSBP,118.0,mmHg,1,
042-S05-011,2,SCREENING,2025-12-31,DIABP,79.0,mmHg,1,
042-S05-011,3,SCREENING,2025-12-31,PULSE,83.0,bpm,1,
042-S05-011,4,BASELINE,2026-01-11,SYSBP,121.0,mmHg,1,
042-S05-011,5,BASELINE,2026-01-11,DIABP,73.0,mmHg,1,
042-S05-011,6,BASELINE,2026-01-11,PULSE,65.0,bpm,1,
042-S05-011,7,WEEK2,2026-01-24,SYSBP,127.0,mmHg,1,
042-S05-011,8,WEEK2,2026-01-24,DIABP,75.0,mmHg,1,
042-S05-011,9,WEEK2,2026-01-24,PULSE,73.0,bpm,1,
042-S05-011,10,WEEK4,2026-02-13,SYSBP,117.0,mmHg,2,
042-S05-011,11,WEEK4,2026-02-13,DIABP,95.0,mmHg,2,
042-S05-011,12,WEEK4,2026-02-13,PULSE,80.0,bpm,2,
042-S05-011,13,WEEK8,2026-03-11,SYSBP,121.0,mmHg,4,
042-S05-011,14,WEEK8,2026-03-11,DIABP,81.0,mmHg,4,
042-S05-011,15,WEEK8,2026-03-11,PULSE,64.0,bpm,4,
042-S05-011,16,WEEK12,2026-04-06,SYSBP,110.0,mmHg,5,
042-S05-011,17,WEEK12,2026-04-06,DIABP,82.0,mmHg,5,
042-S05-011,18,WEEK12,2026-04-06,PULSE,72.0,bpm,5,
042-S05-011,19,WEEK16,2026-05-04,SYSBP,115.0,mmHg,7,
042-S05-011,20,WEEK16,2026-05-04,DIABP,78.0,mmHg,7,
042-S05-011,21,WEEK16,2026-05-04,PULSE,77.0,bpm,7,
042-S05-011,22,WEEK20,2026-06-03,SYSBP,121.0,mmHg,8,
042-S05-011,23,WEEK20,2026-06-03,DIABP,84.0,mmHg,8,
042-S05-011,24,WEEK20,2026-06-03,PULSE,73.0,bpm,8,
042-S05-011,25,WEEK24,2026-06-29,SYSBP,126.0,mmHg,10,
042-S05-011,26,WEEK24,2026-06-29,DIABP,97.0,mmHg,10,
042-S05-011,27,WEEK24,2026-06-29,PULSE,92.0,bpm,10,
042-S05-011,28,EOS,2026-07-13,SYSBP,121.0,mmHg,11,
042-S05-011,29,EOS,2026-07-13,DIABP,72.0,mmHg,11,
042-S05-011,30,EOS,2026-07-13,PULSE,81.0,bpm,11,
042-S06-011,1,SCREENING,2026-01-05,SYSBP,128.0,mmHg,1,
042-S06-011,2,SCREENING,2026-01-05,DIABP,95.0,mmHg,1,
042-S06-011,3,SCREENING,2026-01-05,PULSE,69.0,bpm,1,
042-S06-011,4,BASELINE,2026-01-19,SYSBP,112.0,mmHg,1,
042-S06-011,5,BASELINE,2026-01-19,DIABP,87.0,mmHg,1,
042-S06-011,6,BASELINE,2026-01-19,PULSE,93.0,bpm,1,
042-S06-011,7,WEEK2,2026-02-08,SYSBP,130.0,mmHg,2,
042-S06-011,8,WEEK2,2026-02-08,DIABP,76.0,mmHg,2,
042-S06-011,9,WEEK2,2026-02-08,PULSE,72.0,bpm,2,
042-S06-011,10,WEEK4,2026-02-19,SYSBP,127.0,mmHg,3,
042-S06-011,11,WEEK4,2026-02-19,DIABP,70.0,mmHg,3,
042-S06-011,12,WEEK4,2026-02-19,PULSE,82.0,bpm,3,
042-S06-011,13,WEEK8,2026-03-19,SYSBP,112.0,mmHg,4,
042-S06-011,14,WEEK8,2026-03-19,DIABP,80.0,mmHg,4,
042-S06-011,15,WEEK8,2026-03-19,PULSE,79.0,bpm,4,
042-S06-011,16,WEEK12,2026-04-13,SYSBP,136.0,mmHg,6,
042-S06-011,17,WEEK12,2026-04-13,DIABP,60.0,mmHg,6,
042-S06-011,18,WEEK12,2026-04-13,PULSE,72.0,bpm,6,
042-S06-011,19,WEEK16,2026-05-11,SYSBP,139.0,mmHg,7,
042-S06-011,20,WEEK16,2026-05-11,DIABP,89.0,mmHg,7,
042-S06-011,21,WEEK16,2026-05-11,PULSE,77.0,bpm,7,
042-S06-011,22,WEEK20,2026-06-11,SYSBP,140.0,mmHg,9,
042-S06-011,23,WEEK20,2026-06-11,DIABP,86.0,mmHg,9,
042-S06-011,24,WEEK20,2026-06-11,PULSE,64.0,bpm,9,
042-S06-011,25,WEEK24,2026-07-09,SYSBP,111.0,mmHg,10,
042-S06-011,26,WEEK24,2026-07-09,DIABP,86.0,mmHg,10,
042-S06-011,27,WEEK24,2026-07-09,PULSE,67.0,bpm,10,
042-S06-011,28,EOS,2026-07-12,SYSBP,124.0,mmHg,11,
